ts,ppg_raw,acc_x,acc_y,acc_z,gyr_x,gyr_y,gyr_z,hr
1776161545107,2097152,-7.45581,-1.2981205,9.168275,-1.7898352,1.8387043,0.89675015,0
1776161545145,2270181,-8.912004,-1.2526144,7.6545997,-1.9083431,2.4349089,1.9205604,0
1776161545186,2270148,-10.622074,-0.47901124,6.890577,-1.9083431,2.4349089,1.9205604,0
1776161545225,2269827,-11.690269,-1.0681951,5.956505,-1.3231341,2.3273966,2.670703,0
1776161545267,2269407,-13.42908,-2.6489322,4.718261,-1.3390167,2.162463,2.734233,0
1776161545308,2268964,-13.0338955,-0.8358746,4.2703853,-3.4489453,0.874759,1.9620992,0
1776161545347,2268610,-13.802709,-2.6130064,4.6296434,-0.54611355,0.37873647,1.5601498,0
1776161545387,2268277,-10.887925,-5.043988,2.7830553,-0.54611355,0.37873647,1.5601498,0
1776161545425,2268064,-8.53119,1.7436008,2.517204,-4.010941,0.47891834,1.3023647,0
1776161545470,2267543,-7.8629694,-0.9340719,0.6251097,-1.0506883,0.35918877,1.287704,0
1776161545525,2073883,-6.564849,-1.621453,2.2274022,-1.0885619,0.47036624,1.3121386,0
1776161545547,2073883,-6.564849,-1.621453,2.2274022,-2.575408,0.61453044,1.2962561,0
1776161545585,2073721,-6.9408727,-1.0131087,2.4645128,-2.575408,0.61453044,1.2962561,0
1776161545624,2073592,-7.2258844,-1.745996,2.3519452,-2.575408,0.61453044,1.2962561,0
1776161545666,2073592,-7.647414,-3.1902149,2.2321923,-2.575408,0.61453044,1.2962561,0
1776161545711,2098040,-7.970747,-2.3806858,2.7231789,-2.575408,0.61453044,1.2962561,0
1776161545749,2098100,-7.970747,-2.3806858,2.7231789,-2.575408,0.61453044,1.2962561,0
1776161545786,2098048,-8.30845,-2.4956486,2.5890558,-2.575408,0.61453044,1.2962561,0
1776161545828,2097740,-8.461734,-2.6345618,2.0334027,-2.575408,0.61453044,1.2962561,0
1776161545867,2097031,-9.40299,-2.986635,1.9423906,0.7171558,-0.6731735,-1.2901474,0
1776161545906,2091504,-10.744222,-2.4597228,1.6477987,0.6072,-0.66950834,-1.3536774,0
1776161545948,2089743,-11.97049,-2.682463,1.9447856,0.6072,-0.66950834,-1.3536774,0
1776161545984,2088321,-12.9428835,-3.283622,1.8705388,0.6072,-0.66950834,-1.3536774,0
1776161546025,2087602,-11.704639,-2.9315488,1.7579713,0.6072,-0.66950834,-1.3536774,0
1776161546066,2086842,-10.102347,-1.9471806,1.3843424,0.6072,-0.66950834,-1.3536774,0
1776161546105,2086271,-10.219705,-1.6813295,1.5184656,3.4880404,-0.08674286,-2.6816983,0
1776161546163,2086222,-10.176594,-1.5567865,1.8465884,3.4978144,-0.16371189,-2.5057693,0
1776161546208,2086426,-9.7862,-1.405898,1.9783164,3.4978144,-0.16371189,-2.5057693,0
1776161546228,2086426,-9.949063,-1.0131087,2.308834,3.4978144,-0.16371189,-2.5057693,0
1776161546265,2087574,-9.793385,-0.8478499,2.3160193,3.4978144,-0.16371189,-2.5057693,0
1776161546310,2088358,-9.16588,-0.26585123,2.3160193,3.4978144,-0.16371189,-2.5057693,0
1776161546348,2088358,-9.16588,-0.26585123,2.3160193,3.4978144,-0.16371189,-2.5057693,0
1776161546388,2090138,-8.286895,0.091012135,3.0992026,3.4978144,-0.16371189,-2.5057693,0
1776161546425,2090904,-8.030623,0.23232046,3.3794243,3.4978144,-0.16371189,-2.5057693,0
1776161546468,2090441,-7.534847,0.2299254,4.184163,-0.036651913,0.48747048,-0.27000242,0
1776161546507,2089795,-7.082181,0.383209,4.4931254,-0.28588495,0.77457714,0.38728857,0
1776161546551,2089908,-6.916922,0.4047645,4.682335,-0.7134906,0.9663888,1.1374311,0
1776161546599,2090501,-7.6162786,-0.014370337,4.7062855,-0.7134906,0.9663888,1.1374311,0
1776161546626,2090501,-7.6162786,-0.014370337,4.7062855,-0.7134906,0.9663888,1.1374311,0
1776161546672,2092949,-8.885658,-0.0981973,4.126682,-0.7134906,0.9663888,1.1374311,0
1776161546707,2094037,-10.758593,-0.469431,3.870411,-0.7134906,0.9663888,1.1374311,0
1776161546746,2094861,-10.928641,-1.2909353,3.1518939,-0.7134906,0.9663888,1.1374311,0
1776161546785,2095341,-12.121379,-2.0190325,2.7375493,-0.7134906,0.9663888,1.1374311,0
1776161546829,2095550,-12.667452,-2.6177964,2.6441422,-0.7134906,0.9663888,1.1374311,0
1776161546865,2095483,-13.659005,-3.3985848,2.1220198,-0.7134906,0.9663888,1.1374311,0
1776161546907,2095420,-12.008812,-4.4164834,1.7843169,-1.4648548,-0.0720821,1.0409144,0
1776161546948,2095436,-7.9467964,-4.828433,1.5591816,-0.25778514,0.06352998,0.37384954,0
1776161547000,2095834,-8.787461,-3.6764112,1.6046877,-0.25778514,0.06352998,0.37384954,0
1776161547024,2096718,-8.787461,-3.6764112,1.6046877,-0.25778514,0.06352998,0.37384954,0
1776161547064,2096695,-9.953854,-3.6045597,1.4537991,-0.25778514,0.06352998,0.37384954,0
1776161547115,2095948,-9.769434,-3.4800167,1.2406391,-0.25778514,0.06352998,0.37384954,0
1776161547148,2095233,-10.492742,-3.1614742,1.2981205,-0.25778514,0.06352998,0.37384954,0
1776161547185,2094827,-10.931036,-2.213032,1.0993308,-0.25778514,0.06352998,0.37384954,0
1776161547252,2094758,-11.285504,-1.3819474,1.2550094,2.7085764,-0.29077184,-2.6804767,0
1776161547274,2094758,-11.285504,-1.3819474,1.2550094,2.660929,-0.34208453,-2.4801128,0
1776161547305,2095278,-10.775358,-1.3412315,1.2095034,2.660929,-0.34208453,-2.4801128,0
1776161547365,2095587,-10.016125,-1.2286638,1.4130832,2.660929,-0.34208453,-2.4801128,0
1776161547390,2095950,-9.285633,-1.1687875,1.7292305,2.660929,-0.34208453,-2.4801128,0
1776161547429,2096705,-8.706029,-1.0610099,1.5711569,2.660929,-0.34208453,-2.4801128,0
1776161547468,2097942,-9.34551,-1.233454,1.7867119,2.660929,-0.34208453,-2.4801128,0
1776161547507,2099414,-9.652077,-1.154417,2.2872787,2.660929,-0.34208453,-2.4801128,0
1776161547550,2102141,-10.626864,-0.72570205,3.2668567,-0.30787608,0.2602286,0.7281514,0
1776161547587,2102141,-11.5298,-0.75204766,4.265595,-0.8943067,0.26511553,1.1484267,0
1776161547646,2104019,-7.376773,-0.63468987,4.06441,-0.8943067,0.26511553,1.1484267,0
1776161547673,2105323,-7.376773,-0.63468987,4.06441,-0.8943067,0.26511553,1.1484267,0
1776161547705,2105672,-7.1923537,0.49098653,2.5004387,-0.8943067,0.26511553,1.1484267,0
1776161547758,2106279,-10.176594,-1.7052801,1.4514041,-0.8943067,0.26511553,1.1484267,0
1776161547797,2107293,-10.176594,-1.7052801,1.4514041,-0.8943067,0.26511553,1.1484267,0
1776161547827,2107690,-10.076001,-2.2872787,2.0190325,-0.8943067,0.26511553,1.1484267,0
1776161547868,2107518,-8.545561,-2.8046107,2.692043,-1.3683381,-0.0012217305,1.2999213,0
1776161547909,2107447,-8.227018,-2.0262175,2.5004387,-0.94806284,0.059864793,1.378112,0
1776161547949,2107821,-8.3731165,-1.9543658,2.040588,-0.94806284,0.059864793,1.378112,0
1776161547985,2108590,-7.8917103,-2.004662,1.8394032,-0.94806284,0.059864793,1.378112,0
1776161548027,2109624,-7.8965,-2.2441676,2.299254,-0.94806284,0.059864793,1.378112,0
1776161548077,2110772,-8.112056,-2.4357722,2.7088087,-0.94806284,0.059864793,1.378112,0
1776161548106,2112058,-8.71561,-2.687253,3.3913996,-0.94806284,0.059864793,1.378112,0
1776161548146,2113246,-10.02331,-2.8716724,3.8129294,-0.94806284,0.059864793,1.378112,0
1776161548186,2114627,-10.602914,-3.0321412,3.83688,-0.15760323,0.5742133,1.2363913,0
1776161548226,2114627,-12.2219715,-2.9962153,3.5207326,-0.22602014,0.21991149,-0.09896017,0
1776161548265,2116883,-14.06377,-3.8895712,3.5949793,0.6817256,-0.118507855,-0.83077675,0
1776161548313,2116689,-9.40299,-3.5279179,2.6704876,0.6817256,-0.118507855,-0.83077675,0
1776161548345,2116070,-8.653338,-1.5040953,2.471698,0.6817256,-0.118507855,-0.83077675,0
1776161548393,2115852,-9.556274,-1.7531811,2.378291,0.6817256,-0.118507855,-0.83077675,0
1776161548443,2116120,-11.570517,-2.521994,1.6813295,0.6817256,-0.118507855,-0.83077675,0
1776161548465,2116586,-11.570517,-2.521994,1.6813295,0.6817256,-0.118507855,-0.83077675,0
1776161548517,2115991,-10.868765,-1.6406134,1.235849,0.6817256,-0.118507855,-0.83077675,0
1776161548546,2115991,-10.171803,-1.1160961,1.4250585,0.6817256,-0.118507855,-0.83077675,0
1776161548586,2115565,-9.527534,-0.85503507,1.2478243,0.70616025,-0.8356637,-1.6688838,0
1776161548628,2115635,-8.780276,-0.77839327,1.1017258,0.002443461,-0.60231316,-1.4440855,0
1776161548664,2116345,-8.181512,-1.149627,1.0538247,-0.02687807,-0.3200934,-1.1374311,0
1776161548710,2117238,-7.554007,-1.3867376,1.2118984,-0.02687807,-0.3200934,-1.1374311,0
1776161548750,2118194,-7.110922,-1.3771573,1.6909096,-0.02687807,-0.3200934,-1.1374311,0
1776161548784,2119075,-7.7839327,-1.2526144,2.6177964,-0.02687807,-0.3200934,-1.1374311,0
1776161548825,2120276,-8.605437,-1.3292562,3.4824116,-0.02687807,-0.3200934,-1.1374311,0
1776161548867,2121272,-11.6830845,-1.0178989,3.6979668,-0.02687807,-0.3200934,-1.1374311,0
1776161548905,2121995,-13.663795,-0.8718004,4.0212994,-0.02687807,-0.3200934,-1.1374311,0
1776161548945,2122264,-10.832839,-0.91730654,5.3625307,-0.02687807,-0.3200934,-1.1374311,0
1776161549000,2122379,-8.816202,-0.78797346,3.9973488,-1.4611896,-0.14905111,1.9022343,0
1776161549025,2123521,-9.426941,-0.17244405,1.616663,-2.0500638,-0.20891592,2.0048597,0
1776161549067,2124956,-10.258026,-1.362787,1.3795524,-2.637716,-0.3042109,2.0610592,0
1776161549117,2125955,-10.210125,-2.1196246,1.6813295,-2.637716,-0.3042109,2.0610592,0
1776161549149,2126061,-9.496398,-3.0153759,1.7627614,-2.637716,-0.3042109,2.0610592,0
1776161549185,2125828,-8.552746,-3.3890045,1.5855272,-2.637716,-0.3042109,2.0610592,0
1776161549225,2125670,-7.9372163,-3.0992026,1.3268611,-2.637716,-0.3042109,2.0610592,0
1776161549267,2125505,-7.8533893,-3.8296947,1.2621946,-2.637716,-0.3042109,2.0610592,0
1776161549306,2125898,-7.961167,-3.6859915,1.8920944,-2.637716,-0.3042109,2.0610592,0
1776161549346,2126628,-7.894105,-2.9578943,2.4214017,-2.637716,-0.3042109,2.0610592,0
1776161549389,2127674,-8.31324,-3.1231532,2.9602895,-2.637716,-0.3042109,2.0610592,0
1776161549432,2128840,-10.040075,-3.537498,3.367449,1.5357152,0.49357912,-0.7012733,0
1776161549467,2129860,-11.30706,-3.1806345,3.2309308,1.3035865,0.30298916,-1.2657127,0
1776161549505,2130238,-12.37286,-2.2321923,3.0896225,1.0164797,0.056199603,-1.5613716,0
1776161549552,2130376,-14.178733,-2.7950306,3.5614486,1.0164797,0.056199603,-1.5613716,0
1776161549592,2130434,-11.685479,-2.5914507,2.9267588,1.0164797,0.056199603,-1.5613716,0
1776161549626,2130443,-10.286766,-1.6142678,2.215427,1.0164797,0.056199603,-1.5613716,0
1776161549665,2130544,-12.250712,-1.1400467,1.0873555,1.0164797,0.056199603,-1.5613716,0
1776161549710,2131035,-11.175332,-1.0849605,1.5735519,1.0164797,0.056199603,-1.5613716,0
1776161549744,2130512,-10.382568,-1.6118728,1.6573789,1.0164797,0.056199603,-1.5613716,0
1776161549787,2129820,-9.187435,-1.7052801,1.027479,0.5864306,-0.7672467,-1.4819591,0
1776161549827,2129810,-8.552746,-1.1592072,0.9604175,0.5864306,-0.7672467,-1.4819591,0
1776161549875,2130099,-7.7527966,-1.7723416,0.5915789,0.5864306,-0.7672467,-1.4819591,0
1776161549905,2130661,-7.7527966,-1.7723416,0.5915789,0.5864306,-0.7672467,-1.4819591,0
1776161549945,2131432,-7.2163043,-1.405898,1.154417,0.5864306,-0.7672467,-1.4819591,0
1776161549994,2132157,-6.988774,-1.362787,1.4394288,0.5864306,-0.7672467,-1.4819591,0
1776161550025,2132939,-7.580353,-1.4418238,2.179501,0.5864306,-0.7672467,-1.4819591,0
1776161550065,2133190,-9.644892,-1.3867376,2.9483142,0.5864306,-0.7672467,-1.4819591,0
1776161550128,2133374,-11.046,-1.1783676,3.3578687,-1.9046779,0.956615,2.7867672,0
1776161550146,2133870,-13.967968,-1.1232814,3.6931767,-1.9046779,0.956615,2.7867672,0
1776161550185,2134664,-12.35849,-1.9423906,4.802088,-1.5344934,0.9101892,2.7269025,0
1776161550227,2135168,-8.121635,-2.7447343,4.8835196,-1.5344934,0.9101892,2.7269025,0
1776161550270,2136388,-8.818597,-0.5772085,2.9602895,-1.5344934,0.9101892,2.7269025,0
1776161550308,2137973,-10.329877,-1.4274535,1.4394288,-1.5344934,0.9101892,2.7269025,0
1776161550351,2139258,-9.060497,-2.0741186,1.872934,-1.5344934,0.9101892,2.7269025,0
1776161550387,2139679,-9.271262,-3.403375,2.0525632,-1.5344934,0.9101892,2.7269025,0
1776161550433,2139841,-8.080919,-3.7243123,2.2369826,-1.5344934,0.9101892,2.7269025,0
1776161550468,2139841,-8.080919,-3.7243123,2.2369826,-1.5344934,0.9101892,2.7269025,0
1776161550505,2139457,-8.1910925,-3.278832,1.6980948,-1.5344934,0.9101892,2.7269025,0
1776161550546,2139926,-8.262944,-2.97945,2.2657232,-1.5344934,0.9101892,2.7269025,0
1776161550586,2139926,-8.262944,-2.97945,2.2657232,-1.5344934,0.9101892,2.7269025,0
1776161550634,2141474,-9.419756,-2.900413,3.6309052,-1.5344934,0.9101892,2.7269025,0
1776161550665,2141339,-9.419756,-2.900413,3.6309052,-1.5344934,0.9101892,2.7269025,0
1776161550705,2141266,-10.581358,-2.5483398,3.408165,-1.5344934,0.9101892,2.7269025,0
1776161550745,2141414,-10.933432,-2.2681181,3.154289,-1.5344934,0.9101892,2.7269025,0
1776161550788,2141513,-12.950068,-2.4980435,3.1063879,-1.5344934,0.9101892,2.7269025,0
1776161550832,2141821,-13.572783,-3.1447089,3.0010054,-1.5344934,0.9101892,2.7269025,0
1776161550865,2142039,-10.394544,-2.5698953,2.3687105,-1.5344934,0.9101892,2.7269025,0
1776161550909,2142029,-8.854523,-1.3436265,1.1376517,-1.5344934,0.9101892,2.7269025,0
1776161550963,2142128,-10.092767,-1.2861452,1.3220711,-0.7281514,0.118507855,1.9486601,0
1776161551027,2142468,-10.691531,-1.2909353,1.6430086,0.23823744,-0.8588765,-1.1472049,0
1776161551054,2142338,-10.200544,-1.791502,1.0658,0.23823744,-0.8588765,-1.1472049,0
1776161551098,2142348,-9.719138,-1.4657744,0.54367775,-0.02076942,-0.6059783,-1.5381587,0
1776161551118,2142348,-9.719138,-1.4657744,0.54367775,-0.089186326,-0.44104472,-1.5454891,0
1776161551148,2142516,-8.75872,-1.2621946,0.88856584,-0.172264,-0.36163223,-1.4538593,0
1776161551209,2142798,-8.320425,-1.3819474,0.5484679,0.004886922,0.15149458,-0.6010914,0
1776161551228,2143047,-8.320425,-1.3819474,0.5484679,0.004886922,0.15149458,-0.6010914,0
1776161551264,2142384,-6.768429,-1.6909096,1.4657744,0.0012217305,0.41172317,0.59131753,0
1776161551307,2141824,-7.1348724,-1.9567609,2.5291793,-0.010995574,0.63407815,1.4294246,0
1776161551346,2142206,-9.223361,-1.7675514,3.1399186,-0.31398472,0.66706485,1.971873,0
1776161551409,2143884,-13.515302,-0.2347155,3.1399186,-0.61941737,0.6927212,2.1649065,0
1776161551437,2143884,-13.515302,-0.2347155,3.1399186,-1.53205,0.7244862,2.5949554,0
1776161551468,2144499,-12.459083,-2.2705133,4.768557,-1.2852604,0.376293,1.7397442,0
1776161551506,2145050,-8.164746,-1.5448112,4.3805575,-1.4514158,-0.2443461,1.1178834,0
1776161551547,2146105,-8.291684,-0.94125706,1.4609842,-1.0421361,-0.3213151,1.4465289,0
1776161551586,2147832,-10.133483,-1.3100958,0.77839327,-1.3182472,-0.29932398,1.6151277,0
1776161551626,2149509,-10.284371,-2.7567096,1.149627,-2.411696,-0.3323107,1.5271631,0
1776161551665,2150237,-9.503583,-3.321943,1.9280202,-2.470339,-0.2773328,1.3439035,0
1776161551706,2149688,-7.6330442,-3.403375,2.3136244,-1.9205604,-0.07574729,0.93951076,0
1776161551749,2148471,-7.740822,-2.8237712,2.1387851,-1.9205604,-0.07574729,0.93951076,0
1776161551799,2147998,-8.11445,-3.0153759,1.8274279,-1.9205604,-0.07574729,0.93951076,0
1776161551831,2147840,-8.11445,-3.0153759,1.8274279,-1.9205604,-0.07574729,0.93951076,0
1776161551869,2147531,-8.133611,-2.852512,2.5315745,0.31887165,0.49235737,-0.26267207,0
1776161551905,2147427,-8.018648,-2.8285613,2.98424,0.6817256,0.52534413,-0.4654793,0
1776161551945,2148118,-8.622202,-2.936339,3.1231532,0.9859365,0.44959682,-0.6059783,0
1776161551989,2149283,-10.020915,-3.1854248,3.4800167,1.1496484,0.27000242,-0.9334021,0
1776161552026,2150387,-10.825654,-2.6297717,3.3961897,0.8906415,0.16126843,-1.1765264,0
1776161552068,2151216,-11.72859,-2.5411546,3.3147578,1.1166617,-0.0061086523,-1.328021,0
1776161552109,2151824,-11.72859,-2.5411546,3.3147578,1.9608774,-0.37140608,-1.4966198,0
1776161552147,2152309,-13.788339,-3.4273255,3.0465114,2.4263568,-0.72326446,-2.172237,0
1776161552186,2152593,-9.302399,-1.0897505,1.489725,2.4898868,-1.0665708,-2.2883012,0
1776161552226,2152467,-11.000493,-0.6011591,1.5927124,1.078788,-1.1252137,-1.7531832,0
1776161552273,2152381,-11.357356,-0.9077263,1.5543915,0.22357668,-1.105666,-1.4318681,0
1776161552308,2151814,-10.722667,-1.5663668,1.5855272,-0.20769419,-1.0274754,-1.4611896,0
1776161552347,2151144,-9.082053,-1.0011334,1.3100958,-0.25289822,-0.81122905,-1.4391985,0
1776161552390,2150761,-7.88692,-1.0346643,1.1208863,-0.004886922,-0.63163465,-1.1484267,0
1776161552434,2149670,-8.171931,-1.5280459,1.1448369,0.062308256,-0.47036624,-0.65118235,0
1776161552465,2148901,-7.6881304,-1.3915277,1.3077006,-0.59864795,-0.21746802,0.014660766,0
1776161552505,2148685,-7.4294643,-0.98197305,1.7507861,-1.3927728,0.030543262,0.7867944,0
1776161552546,2148685,-7.4294643,-0.98197305,1.7507861,-1.6786577,0.12095132,1.5894713,0
1776161552589,2149152,-7.88692,-1.7196504,2.1435752,-1.717753,-0.0036651916,2.235767,0
1776161552625,2150335,-9.422151,-1.7100701,2.2872787,-2.3823745,-0.23457226,2.7159069,0
1776161552667,2151699,-10.394544,-1.4394288,2.260933,-3.0653217,-0.7305948,3.0799825,0
1776161552708,2152714,-14.252979,-1.619058,1.49212,-3.7201693,-0.83077675,3.5674531,0
1776161552746,2153480,-15.388236,-2.2513528,0.63708496,-4.0500364,-0.8405506,3.4648278,0
1776161552786,2154112,-12.791995,-2.692043,0.6514553,-3.9791763,-0.95539325,1.7006488,0
1776161552826,2154087,-9.659262,-2.0357978,0.8981461,-3.1813862,-1.073901,1.1716396,0
1776161552865,2153331,-10.574173,-1.7124652,0.58439374,-2.638938,-1.1508701,1.1007792,0
1776161552911,2152402,-10.540643,-2.4022415,-0.20118472,-2.7281241,-1.1337659,1.1679744,0
1776161552946,2152386,-9.9825945,-2.342365,-0.77599823,-2.973692,-0.98715824,1.3109168,0
1776161552986,2152127,-8.797041,-2.34955,-0.3664436,-3.0176742,-0.7367035,1.3695599,0
1776161553026,2151015,-8.250969,-2.304044,0.2299254,-2.8747318,-0.46670106,1.3170254,0
1776161553066,2149450,-8.183907,-2.2321923,0.87659055,-2.7537806,-0.33353242,1.2889256,0
1776161553105,2148238,-8.250969,-2.1651309,1.020294,-2.3200662,0.14538592,1.2559389,0
1776161553148,2147547,-9.197016,-2.217822,1.6861196,-2.1514673,0.27977628,1.1838568,0
1776161553186,2147547,-9.197016,-2.217822,1.6861196,-1.9926424,0.3323107,1.1777482,0
1776161553227,2147943,-9.089238,-2.1866863,2.3136244,-1.9779817,0.27855456,1.1569787,0
1776161553264,2148608,-9.321559,-1.8489834,2.471698,-2.2272146,0.18936823,1.0946705,0
1776161553306,2148608,-9.321559,-1.8489834,2.471698,-2.624277,0.16737708,1.0262536,0
1776161553348,2150697,-9.259287,-2.392661,2.5938458,-2.4153612,0.029321533,0.8368854,0
1776161553386,2151788,-9.2688675,-2.476488,2.7878454,-2.4043655,-0.007330383,0.7293731,0
1776161553431,2151788,-9.2688675,-2.476488,2.7878454,-2.71102,-0.3115413,0.32375857,0
1776161553466,2152663,-9.529928,-2.2106369,2.6656976,-2.8710666,-0.42394048,0.21380283,0
1776161553504,2154034,-10.25084,-2.2369826,1.8489834,-2.9529226,-0.6462954,-0.0061086523,0
1776161553545,2154373,-10.03289,-2.2465627,1.6070827,-2.8173106,-0.75869465,-0.19058995,0
1776161553586,2153597,-9.371855,-2.0789087,1.403503,-2.6230555,-0.8014552,-0.39461896,0
1776161553626,2152517,-10.392149,-2.045378,1.2406391,-2.0732768,-0.8539896,-0.29810223,0
1776161553668,2151534,-10.794518,-2.1483655,1.1759726,-2.0696115,-0.7305948,-0.17592919,0
1776161553705,2150734,-9.106004,-1.9639461,1.1472319,-1.9963076,-0.66950834,-0.09896017,0
1776161553745,2150734,-9.106004,-1.9639461,1.1472319,-1.6578883,-0.61086524,0.18692477,0
1776161553785,2148935,-8.634177,-2.0070572,1.2047132,-1.5076154,-0.54367006,0.625526,0
1776161553826,2148935,-8.634177,-2.0070572,1.2047132,-1.518611,-0.37873647,1.2034045,0
1776161553869,2148204,-9.139534,-2.4453523,1.1448369,-1.2999213,-0.0036651916,1.9633209,0
1776161553906,2148036,-9.242522,-2.77587,1.3220711,-1.1154399,0.13194689,2.1514673,0
1776161553949,2147884,-9.5922,-2.9507093,1.7268355,-0.56077427,0.42394048,2.3994787,0
1776161553985,2147639,-9.901162,-3.103993,1.9902917,-0.40439278,0.4361578,2.307849,0
1776161554025,2147633,-9.917928,-3.6045597,2.0813038,0.07696902,0.41050145,2.0024164,0
1776161554065,2147885,-9.872421,-3.9111269,2.2753034,0.4373795,0.25289822,1.459968,0
1776161554106,2148421,-9.745483,-4.133867,2.3998463,0.6597345,0.14782938,0.7892379,0
1776161554147,2148441,-9.618546,-4.3182864,2.4190068,0.8735373,0.052534413,0.0842994,0
1776161554185,2148207,-10.0281,-4.081176,2.5675,1.1203269,-0.087964594,-0.61208695,0
1776161554225,2148123,-10.111927,-3.4848068,2.5866606,1.1520919,-0.19058995,-1.1496484,0
1776161554264,2148220,-11.975281,-3.2908072,2.9075983,1.2070698,-0.42394048,-1.6542231,0
1776161554305,2148461,-12.78481,-2.6273766,2.6776729,0.9773844,-0.5021312,-2.1429152,0
1776161554345,2148401,-10.47358,-2.1651309,2.5004387,1.3671165,-0.49846604,-2.7892108,0
1776161554386,2147879,-9.565854,-1.5759469,2.1890814,2.438574,-0.8014552,-3.535688,0
1776161554427,2147879,-9.565854,-1.5759469,2.1890814,2.8050933,-1.0262536,-3.6664133,0
1776161554466,2146674,-12.650687,-0.6155294,1.8968844,2.0109684,-1.1435398,-3.0885346,0
1776161554505,2146036,-11.496269,-0.77360314,2.4070315,0.8185594,-1.0848967,-2.7476718,0
1776161554545,2146036,-11.496269,-0.77360314,2.4070315,0.5571091,-0.70371675,-2.3872614,0
1776161554586,2144656,-8.861708,-0.7807883,2.0717237,0.79290307,-0.43127087,-2.149024,0
1776161554626,2144656,-8.861708,-0.7807883,2.0717237,0.68294734,-0.10629055,-1.8191566,0
1776161554667,2144831,-7.4941306,-0.70893663,2.1220198,0.3640757,0.3200934,-1.1472049,0
1776161554706,2144000,-5.9924307,-0.58199865,3.4560661,-0.12217305,0.59986967,-0.28588495,0
1776161554749,2143428,-5.836752,-0.48859146,4.0596204,-0.64996064,0.86620694,0.61086524,0
1776161554787,2143428,-5.836752,-0.48859146,4.0596204,-0.89919364,1.0910053,1.4147639,0
1776161554826,2143850,-6.0738626,-0.71133167,4.093151,-0.87598073,1.1239921,2.2137756,0
1776161554868,2145174,-7.03428,-0.9340719,4.1913486,-1.0910053,0.9370673,2.8722885,0
1776161554905,2148416,-10.523877,-0.8454548,4.359002,-1.9205604,0.61575216,3.4306192,0
1776161554946,2148416,-10.523877,-0.8454548,4.359002,-3.5503488,0.20525073,3.562566,0
1776161554986,2150538,-16.173815,-1.6573789,1.7675514,-4.4043384,-0.2883284,3.0592132,0
1776161555026,2150538,-16.173815,-1.6573789,1.7675514,-3.1703906,-0.7476991,2.2724187,0
1776161555069,2151244,-11.843553,-3.5087574,0.90533125,-2.824641,-0.8258898,1.3524556,0
1776161555106,2150892,-9.333534,-2.5195992,0.6778009,-2.7317894,-0.84665924,0.6169739,0
1776161555146,2150892,-9.333534,-2.5195992,0.6778009,-2.1294763,-0.8002335,0.5204572,0
1776161555187,2149061,-9.647286,-3.7674234,-0.49577662,-0.98471475,-0.7452556,0.68661255,0
1776161555224,2148499,-9.029362,-3.3961897,-0.48380136,-0.6731735,-0.47647488,0.7611381,0
1776161555265,2148499,-9.029362,-3.3961897,-0.48380136,-0.44226643,-0.09896017,0.6719518,0
1776161555305,2147231,-8.461734,-3.1974,0.08861708,-0.029321533,0.17837265,0.44348818,0
1776161555344,2144395,-8.092895,-3.0321412,0.77360314,0.5766568,0.4202753,0.1685988,0
1776161555392,2141484,-7.9036856,-3.065672,1.0634049,1.2742649,0.54367006,-0.30787608,0
1776161555424,2139655,-8.708425,-3.108783,1.2741699,1.3744467,0.55955255,-0.44226643,0
1776161555465,2139655,-8.708425,-3.108783,1.2741699,1.5357152,0.5693264,-0.65240407,0
1776161555505,2139813,-9.029362,-2.981845,1.2406391,1.6200147,0.49113566,-0.84788096,0
1776161555553,2140990,-9.740693,-2.7974257,1.9376005,1.640784,0.34574974,-1.0189233,0
1776161555594,2140990,-9.740693,-2.7974257,1.9376005,1.8362609,0.312763,-1.0848967,0
1776161555628,2141688,-9.774224,-2.6489322,2.0214274,2.1343632,0.30298916,-1.110553,0
1776161555671,2142271,-10.205335,-2.8812525,1.9687362,2.9162707,0.02565634,-1.033584,0
1776161555708,2142797,-11.239999,-2.8046107,2.337575,3.1874948,-0.22602014,-0.9896017,0
1776161555746,2143132,-12.308194,-2.5243893,2.7902405,2.90161,-0.52656585,-1.0384709,0
1776161555784,2143156,-14.217053,-2.337575,3.075252,2.3542747,-0.77824235,-1.4489723,0
1776161555824,2142885,-12.123775,-1.1232814,3.0010054,1.6823229,-1.1545353,-2.0635028,0
1776161555865,2140042,-8.859313,0.021555506,1.6573789,1.0519099,-1.2938126,-2.1844542,0
1776161555907,2140042,-8.859313,0.021555506,1.6573789,0.1441642,-1.2559389,-1.7922786,0
1776161555946,2139420,-9.632916,-0.45745572,1.8250328,-0.24678956,-1.1081096,-1.319469,0
1776161555986,2139499,-9.376645,-1.5567865,1.9639461,-0.47036624,-0.8356637,-1.0067059,0
1776161556025,2139711,-8.31324,-1.4585892,1.9256252,-0.3359759,-0.3481932,-0.81245077,0
1776161556065,2139403,-6.8786016,-1.2981205,1.6693542,0.26145032,0.24312437,-0.53023106,0
1776161556106,2138794,-6.437911,-1.5567865,1.6741443,0.32620203,0.7684685,-0.04153884,0
1776161556145,2138009,-6.639096,-1.4250585,2.4022415,0.06963864,1.0506883,0.49602258,100
1776161556187,2137771,-7.1540327,-1.2933303,3.0177708,-0.23945917,1.1948525,0.956615,100
1776161556225,2137650,-7.4845505,-1.1879479,3.1926098,-0.6243043,1.1801916,1.3096951,100
1776161556276,2138166,-7.9444013,-1.0945407,3.4776216,-1.4330899,0.8881981,1.7385225,100
1776161556305,2141129,-9.465262,-1.0059236,3.6524606,-1.7666223,0.79045963,1.9230038,100
1776161556347,2141129,-9.465262,-1.0059236,3.6524606,-2.3237314,0.45448375,2.147802,100
1776161556387,2142536,-10.483161,-1.3939227,3.6141398,-2.4349089,0.21868975,2.2870796,100
1776161556425,2143322,-11.165752,-2.0789087,3.626115,-2.239432,0.2321288,2.3127358,100
1776161556466,2143886,-11.7740965,-3.020166,2.428587,-3.363424,-0.3323107,2.1099286,100
1776161556505,2144462,-13.934437,-2.1771061,2.4357722,-2.2956316,-0.44593164,1.7788396,100
1776161556545,2144814,-12.456687,-4.5673723,1.9447856,-1.3329079,-0.48624873,1.0140363,100
1776161556585,2144799,-8.900029,-4.4548044,1.5160706,-0.34208453,-0.29565877,0.47647488,100
1776161556625,2144397,-8.399462,-3.9805834,1.1975281,0.72204274,-0.25411993,0.04520403,100
1776161556665,2144483,-8.94314,-4.6775446,1.3532068,1.3927728,-0.20525073,-0.5363397,100
1776161556706,2144511,-9.163485,-4.3566074,1.5088854,1.2815952,-0.20280726,-1.1569787,100
1776161556747,2144371,-9.163485,-2.821376,1.7388108,1.070236,-0.16249016,-1.6077974,100
1776161556785,2144515,-8.689264,-2.4190068,1.6142678,1.2889256,-0.08674286,-1.7189748,100
1776161556826,2144212,-8.543165,-2.5890558,1.2861452,1.7592919,-0.08552113,-1.6676621,100
1776161556865,2144132,-9.220966,-2.898018,1.2693797,2.0305161,-0.08307768,-1.5723672,100
1776161556906,2144402,-9.644892,-2.7231789,1.1639973,1.9730947,-0.07574729,-1.4489723,100
1776161556948,2144090,-9.474842,-2.3232045,1.2238737,1.6053538,-0.058643065,-1.3109168,100
1776161556984,2142776,-8.935955,-1.8250328,1.6477987,1.4013249,-0.0012217305,-1.1728612,100
1776161557024,2141178,-8.682078,-1.8681438,1.8010823,1.3451253,0.087964594,-0.93462384,100
1776161557067,2140121,-9.577829,-1.872934,2.0429828,1.1313224,0.16249016,-0.6450737,100
1776161557105,2139848,-10.765778,-1.8585637,3.0944126,0.6658431,0.10262536,-0.47891834,100
1776161557147,2140073,-11.812417,-1.4969101,4.100336,0.46792278,0.13805555,-0.37384954,100
1776161557187,2140291,-12.281848,-1.4873298,4.2416444,0.6462954,-0.028099801,-0.6169739,100
1776161557226,2140486,-10.071211,-1.1807626,4.519471,0.45937067,-0.20158553,-1.1129965,100
1776161557269,2141114,-7.9204507,-0.41194966,3.7841887,0.5216789,-0.3921755,-1.0531317,100
1776161557304,2142315,-8.212647,-0.5748135,2.2729082,0.10140363,-0.41783184,-0.65484756,100
1776161557347,2143730,-8.119241,-0.7951586,2.054958,-0.7684685,-0.39095375,-0.10140363,100
1776161557387,2145261,-8.761115,-1.1735775,2.5267842,-1.3329079,-0.33353242,0.25167647,100
1776161557426,2146510,-8.272524,-1.5855272,2.8285613,-1.3866642,-0.20525073,0.4166101,100
1776161557466,2146715,-7.4342546,-1.4561942,2.5435498,-1.2082914,0.07819075,0.64996064,100
1776161557506,2145781,-7.0606256,-1.3675771,2.088489,-1.128879,0.23823744,0.95417154,100
1776161557545,2144400,-7.6114883,-1.745996,2.3351798,-1.3267993,0.2773328,1.2852604,100
1776161557590,2143678,-8.064155,-1.7196504,2.6800678,-1.8093829,0.3115413,1.582141,100
1776161557625,2143554,-7.9396114,-1.5160706,2.7519195,-2.221106,0.16126843,1.858252,100
1776161557667,2143590,-8.782671,-1.6549839,2.8668823,-2.094046,0.09407325,2.2272146,100
1776161557706,2143970,-10.349038,-2.5459447,2.4597228,-1.8399261,-0.07941248,2.2675319,100
1776161557745,2144436,-12.207602,-3.1471038,2.0980692,-3.2217033,-0.07941248,2.2174408,100
1776161557786,2144841,-12.636316,-2.253748,2.6130064,-3.5527923,-0.34208453,1.7739527,100
1776161557825,2145009,-13.829055,-3.2716467,2.1435752,-2.792876,-0.45204028,1.319469,100
1776161557865,2144900,-12.186046,-4.1051264,1.6813295,-1.5625933,-0.45814893,0.593761,100
1776161557907,2144668,-8.964695,-4.1051264,1.5304409,-0.2602286,-0.23457226,0.13561209,100
1776161557946,2144316,-7.9012904,-3.753053,0.7975537,0.73792523,-0.2406809,-0.081855945,100
1776161557986,2144402,-8.351561,-4.1961384,1.2669847,1.1887437,-0.22479841,-0.50579643,100
1776161558027,2144300,-9.19941,-3.8081393,1.3412315,1.1386528,-0.103847094,-0.9627236,100
1776161558065,2143265,-9.096423,-2.4573276,1.2118984,0.9663888,0.019547688,-1.2889256,100
1776161558105,2142088,-8.406648,-1.9902917,1.2118984,1.0519099,0.13561209,-1.3048081,100
1776161558145,2140999,-8.265339,-2.3543403,1.2286638,1.4660766,0.16982053,-1.110553,101
1776161558184,2139946,-8.7299795,-2.8237712,1.2478243,1.8619173,0.30665436,-0.8552113,101
1776161558227,2139466,-8.53119,-2.9147835,0.9963434,2.2382102,0.40439278,-0.70371675,101
1776161558267,2139108,-8.387486,-2.7638948,0.90533125,2.5350907,0.40439278,-0.6389651,101
1776161558306,2138759,-8.5551405,-2.6656976,1.0753802,2.6584857,0.30176744,-0.5815437,101
1776161558344,2138259,-10.298741,-2.816586,1.405898,2.3506095,0.1685988,-0.5681047,101
1776161558389,2137799,-11.802837,-2.5028336,1.7795267,1.7128662,0.14172074,-0.7305948,101
1776161558426,2137786,-12.739304,-2.1555505,2.347155,1.2412782,-0.0036651916,-0.9761627,101
1776161558465,2138054,-13.819474,-1.8801191,3.0560918,1.3402383,-0.07086037,-1.5503759,101
1776161558505,2138280,-11.608837,-1.4226633,3.3602638,1.5234979,-0.376293,-2.3591616,101
1776161558545,2138593,-7.6138835,-0.89096093,3.6644359,1.2596041,-0.5705481,-2.375044,101
1776161558588,2138149,-8.440178,-0.4095546,2.4118216,1.0262536,-0.6817256,-1.6578883,101
1776161558626,2137608,-9.38383,-0.9843681,2.0214274,0.30543262,-0.6780604,-1.0592403,101
1776161558665,2137751,-9.007807,-1.233454,2.3974512,-0.29810223,-0.56321776,-0.6047566,101
1776161558710,2138093,-8.696449,-1.238244,2.598636,-0.4373795,-0.30909783,-0.28955013,101
1776161558746,2138103,-7.618674,-1.0873555,2.4453523,-0.18203785,0.081855945,-0.02076942,101
1776161558787,2137496,-6.938478,-1.1855528,2.1004643,-0.44715336,0.3848451,0.36774087,101
1776161558825,2136886,-7.0534406,-1.1855528,2.3950562,-0.86009824,0.57910025,0.86742866,101
1776161558865,2136745,-7.371983,-1.2166885,2.7112036,-1.1191051,0.6805039,1.3267993,101
1776161558906,2136829,-7.371983,-1.3340462,2.807006,-1.3170254,0.6365216,1.6603317,101
1776161558947,2137085,-7.8653646,-1.5088854,3.0034006,-1.6285667,0.5448918,2.0146337,101
1776161558985,2137746,-8.998226,-1.5040953,2.9171784,-2.204002,0.42394048,2.2748623,101
1776161559026,2138732,-10.8999,-1.9376005,2.5722904,-2.7476718,0.2724459,2.0500638,101
1776161559066,2139907,-12.308194,-2.050168,1.9016746,-2.4959953,-0.015882496,1.7470746,101
1776161559105,2140624,-13.917671,-2.5698953,1.5783421,-2.83808,-0.2932153,1.536937,101
1776161559145,2140410,-14.631398,-2.7447343,1.1568122,-1.9523253,-0.204029,0.89552844,101
1776161559185,2139653,-10.19815,-4.0620155,0.41913483,-1.5577064,-0.04153884,0.53023106,101
1776161559225,2138493,-7.843809,-2.3351798,0.10777753,-1.0225884,-0.095294975,0.5216789,101
1776161559265,2137633,-9.266473,-3.1447089,0.383209,-0.21624629,-0.21991149,0.5717699,101
1776161559305,2137614,-9.187435,-3.9877687,0.5915789,0.4813618,-0.14782938,0.22235495,101
1776161559345,2137208,-9.192225,-3.6021645,0.36883867,0.52412236,-0.029321533,-0.21380283,101
1776161559384,2136886,-8.806622,-2.4429574,1.027479,0.45814893,0.02076942,-0.5314528,101
1776161559425,2136402,-8.648548,-2.1483655,1.1184913,0.38606682,0.03176499,-0.6805039,101
1776161559466,2135930,-8.840153,-2.263328,1.0705901,0.45448375,-0.035430185,-0.66706485,101
1776161559507,2135919,-8.9958315,-2.4645128,1.1975281,0.5888741,-0.11362094,-0.6377433,101
1776161559547,2135963,-8.844942,-2.438167,1.1472319,0.70249504,-0.12705997,-0.6084218,101
1776161559585,2135979,-8.5551405,-2.220217,1.1304665,0.90408057,-0.16371189,-0.516792,101
1776161559625,2135298,-8.476104,-2.342365,1.5208607,0.8210029,-0.14660765,-0.376293,101
1776161559665,2134246,-9.1706705,-2.1914763,1.6477987,0.8539896,-0.034208454,-0.13072516,101
1776161559705,2133344,-10.085582,-2.4261918,1.7220454,1.1191051,0.021991149,0.07819075,101
1776161559745,2132959,-11.117851,-2.8860426,2.2896738,1.3658947,0.118507855,0.20280726,101
1776161559785,2132588,-12.233947,-3.0489066,2.4429574,1.5491543,0.12583824,0.052534413,101
1776161559826,2132273,-12.758464,-3.3770292,2.98424,2.0879374,-0.03176499,-0.82711154,101
1776161559865,2132137,-8.636573,-3.1710544,2.7183888,2.8405235,-0.017104227,-1.3023647,101
1776161559906,2132165,-6.1289487,-1.872934,1.3819474,3.2876768,-0.15271631,-1.1447614,101
1776161559946,2132961,-9.4580765,-2.730364,1.1639973,2.8283062,-0.33108896,-0.8405506,101
1776161559985,2134218,-10.84721,-2.4549327,1.5160706,1.8716911,-0.3494149,-0.75747293,101
1776161560026,2134697,-10.492742,-2.1818962,1.535231,1.5283848,-0.23335053,-0.8381071,101
1776161560067,2134326,-8.993436,-2.0357978,1.2597996,1.8936822,0.029321533,-0.79534656,101
1776161560105,2133633,-8.52161,-2.466908,0.6897762,2.552195,0.2602286,-0.625526,101
1776161560145,2132836,-8.818597,-3.0824373,0.45745572,2.9064968,0.4654793,-0.44837508,101
1776161560184,2131602,-8.866498,-3.1015978,0.41673976,2.9480357,0.63041294,-0.42149702,101
1776161560226,2130348,-8.430597,-2.77587,0.37362877,3.0384438,0.7012733,-0.52656585,101
1776161560266,2129222,-8.53598,-2.9171784,0.5149371,3.2485814,0.6951646,-0.6462954,101
1776161560305,2128429,-9.426941,-3.1255484,0.59397393,3.395189,0.625526,-0.82833326,101
1776161560345,2128258,-10.25084,-3.4225352,0.61073935,3.3206635,0.59986967,-1.1301007,101
1776161560385,2128384,-10.729852,-3.1063879,0.53170246,3.4489453,0.46181414,-1.4611896,101
1776161560426,2128506,-10.84242,-2.941129,0.86701035,4.159992,0.19547687,-1.5699236,101
1776161560468,2128414,-10.23647,-3.0153759,0.7712081,4.768414,-0.14782938,-1.2351695,101
1776161560506,2128203,-11.469924,-3.5087574,0.48380136,4.4312167,-0.4605924,-0.9578367,101
1776161560547,2128271,-11.764516,-3.1279433,0.17723416,2.9126055,-0.6389651,-0.9932669,101
1776161560585,2128376,-10.631655,-1.8896993,0.25387597,1.5552629,-0.6805039,-1.110553,101
1776161560626,2128186,-9.898767,-1.6070827,0.3975793,1.1044444,-0.61086524,-1.1142182,101
1776161560666,2127779,-9.613755,-2.4525375,0.19878966,1.3610078,-0.44959682,-1.0225884,101
1776161560706,2126836,-9.556274,-3.2668567,-0.16765393,1.8301523,-0.24556783,-1.0103711,101
1776161560747,2125757,-9.565854,-3.6285102,-0.34009796,1.7654005,-0.036651913,-1.1276573,101
1776161560786,2124575,-10.040075,-3.0584867,-0.45027056,1.4330899,0.14782938,-1.4416419,101
1776161560827,2123147,-10.253236,-2.7950306,-0.0383209,1.2620476,0.36774087,-1.772731,101
1776161560865,2121802,-10.140668,-2.4429574,0.16046876,1.2388347,0.6047566,-2.0378466,101
1776161560906,2121006,-10.052051,-2.392661,0.38560405,1.3084733,0.8503244,-2.1551325,101
1776161560945,2120726,-9.965829,-2.2010567,0.6801959,1.4697418,1.033584,-2.157576,101
1776161560985,2120405,-9.668841,-2.1196246,1.3005155,1.8032742,1.1239921,-2.057394,101
1776161561027,2120118,-9.494002,-2.0429828,1.8250328,1.9608774,1.1264355,-1.8777997,101
1776161561068,2120010,-9.759854,-1.9687362,2.6130064,1.9107865,1.001819,-1.677436,101
1776161561105,2120502,-9.817335,-1.6238481,3.4153502,1.4966198,0.6047566,-1.4013249,101
1776161561145,2121641,-10.428075,-1.149627,4.2368546,0.57787853,0.4092797,-0.90285885,101
1776161561186,2123075,-9.927508,-0.469431,4.720656,-0.58276546,0.39095375,-0.13316862,101
1776161561227,2124884,-10.104742,-0.12933303,5.151766,-1.5283848,0.17104226,0.5693264,101
1776161561265,2126191,-9.747879,-0.6251097,6.1481094,-1.142318,-0.3848451,0.8552113,101
1776161561306,2127543,-8.612622,-1.8034773,5.2523584,-0.5131268,-0.9285152,1.0629056,101
1776161561346,2128408,-7.8629694,-1.8489834,4.0404596,-0.96761054,-1.1398746,1.4257594,101
1776161561385,2130054,-8.152771,-1.0705901,2.9315488,-1.8668042,-1.2498302,1.7617353,101
1776161561426,2132116,-9.525139,-1.3508117,2.727969,-2.6364944,-1.1410962,1.749518,101
1776161561466,2133915,-10.001755,-2.002267,2.3567352,-2.6719246,-0.9126327,1.53205,101
1776161561506,2134731,-9.510768,-2.6704876,2.2034516,-1.8826867,-0.6560693,1.396438,101
1776161561547,2134761,-8.727585,-3.075252,2.090884,-1.0836749,-0.3555236,1.4391985,101
1776161561586,2134510,-8.519215,-2.8477218,1.916045,-0.34330627,0.037873644,1.4672983,101
1776161561625,2133903,-8.397067,-3.2309308,1.2406391,0.062308256,0.34330627,1.4391985,101
1776161561665,2133214,-8.330006,-3.2213507,1.449009,0.2846632,0.5888741,1.4001031,101
1776161561707,2133140,-8.564721,-3.1399186,1.7699466,0.44104472,0.7892379,1.2657127,101
1776161561748,2133669,-8.480894,-3.329128,2.0286126,0.7623598,0.9602802,1.0580186,101
1776161561786,2133850,-8.655733,-3.6812015,2.2824886,0.8210029,0.97249746,0.75991637,101
1776161561827,2133473,-8.907214,-3.6692262,3.1614742,0.73792523,0.8417723,0.3115413,101
1776161561866,2133131,-8.768301,-4.052435,3.662041,0.17104226,0.59742624,-0.23701571,101
1776161561905,2132952,-10.114323,-4.100336,4.145842,1.1911873,0.39584067,-0.7696902,101
1776161561945,2133187,-11.390887,-5.005667,3.278832,2.605951,0.1282817,-1.4330899,101
1776161561987,2133793,-12.152515,-4.737421,2.9075983,2.8429668,-0.07574729,-1.7996091,101
1776161562026,2134389,-11.539381,-3.2620666,2.6800678,2.7134633,-0.36163223,-1.9572122,101
1776161562067,2134472,-9.5419035,-2.213032,2.392661,2.4825563,-0.59131753,-2.0182989,101
1776161562107,2133891,-9.017386,-1.7723416,1.5759469,2.3835962,-0.8173377,-1.5503759,101
1776161562146,2132013,-10.952592,-2.4908586,0.8694054,1.9413297,-0.98471475,-1.4391985,101
1776161562185,2130023,-11.2423935,-2.9028082,0.25866607,1.1154399,-1.070236,-1.3988814,101
1776161562228,2129078,-10.45921,-1.1304665,0.34967822,-0.8491027,-0.8381071,-1.6126842,101
1776161562267,2128298,-9.563459,-1.2454293,0.38799912,-0.52534413,-0.56199604,-1.6627752,101
1776161562308,2126946,-9.153905,-2.3854759,0.26345617,0.40194935,-0.24190263,-1.6102408,101
1776161562346,2126219,-8.907214,-2.469303,0.37841886,0.79534656,-0.081855945,-1.5088371,101
1776161562386,2125098,-8.7299795,-2.2848835,0.77599823,0.82833326,0.37384954,-1.1044444,101
1776161562426,2124098,-8.255758,-1.5400212,1.7028849,0.25289822,0.6743952,-0.51923543,101
1776161562466,2123274,-7.388748,-1.3699721,2.512414,0.112399206,0.752586,-0.21013765,101
1776161562507,2122729,-7.5971184,-1.5112804,3.1854248,-0.28344148,0.5131268,0.81000733,101
1776161562547,2122999,-8.718004,-1.4969101,3.8296947,-1.1191051,0.32742378,1.7214183,101
1776161562588,2124856,-10.380174,-1.3915277,3.8225098,-2.3493876,0.19058995,2.824641,101
1776161562626,2126801,-13.036291,-1.2047132,3.6428804,-3.5381315,-0.06841691,3.3353243,101
1776161562665,2128071,-13.069821,-1.8968844,4.5937176,-3.7922513,-0.49480084,3.0616567,101
1776161562708,2128821,-9.300003,-3.0920177,4.5290513,-1.4844025,-1.110553,2.0329595,101
1776161562745,2129137,-7.9515867,-2.8453267,2.1771061,-1.174083,-1.1081096,1.9645426,101
1776161562786,2130333,-10.483161,-2.900413,0.95323235,-1.5809193,-0.65118235,1.3365731,101
1776161562827,2131724,-10.514297,-3.3482885,0.6562454,-1.6676621,-0.5216789,1.1777482,101
1776161562866,2132338,-9.685607,-3.6788063,1.1759726,-1.1557571,-0.24190263,0.77946407,101
1776161562909,2131985,-7.894105,-3.6333003,1.4825398,-0.4886922,0.032986723,0.6609562,101
1776161562945,2129906,-7.249835,-3.2189555,0.96520764,-0.23945917,0.1881465,0.63529986,101
1776161562986,2127157,-7.546822,-3.3818192,0.8741955,0.039095376,0.4886922,0.5216789,101
1776161563027,2125145,-7.800698,-3.4895968,1.3220711,0.06352998,0.70005155,0.2846632,101
1776161563066,2124280,-7.589933,-3.2979925,2.1411803,0.1563815,0.8564331,-0.029321533,101
1776161563105,2124038,-7.9204507,-3.3842144,2.6968334,0.44348818,0.94806284,-0.23090707,101
1776161563145,2124031,-9.678422,-3.8153245,3.753053,1.2742649,0.72692966,-0.45570546,100
1776161563187,2124287,-11.465134,-4.785322,5.0391984,1.5296066,0.44715336,-1.0067059,100
1776161563226,2124816,-11.831577,-3.242906,5.3170247,1.319469,0.21380283,-1.5063937,100
1776161563266,2125485,-13.488956,-2.8884377,5.8223815,3.530801,-0.38728857,-1.251052,100
1776161563316,2126227,-12.296219,-2.55792,4.5793476,1.4159856,-1.102001,-1.2742649,100
1776161563345,2127012,-8.368326,1.1616023,3.4416957,0.4569272,-1.1264355,-1.4795157,100
1776161563385,2127765,-9.237732,-1.2909353,2.5722904,0.3640757,-1.0922271,-0.9859365,100
1776161563429,2128578,-10.23647,-1.9711312,2.5004387,0.84421575,-1.2754866,-0.9468411,100
1776161563465,2127434,-10.4376545,-2.9602895,1.9352055,0.4605924,-1.2253957,-1.0079277,100
1776161563508,2125805,-9.690397,-1.7747366,1.2238737,-0.41416663,-0.9602802,-1.4184291,100
1776161563545,2124237,-8.4569435,-1.3172809,1.0178989,-0.2968805,-0.8784242,-1.491733,100
1776161563585,2121917,-8.181512,-1.6501937,1.0729852,-0.07819075,-0.6072,-1.4367551,100
1776161563625,2119908,-8.229413,-1.8801191,1.020294,0.111177474,-0.30909783,-1.174083,100
1776161563664,2119513,-7.7623773,-1.9280202,1.3148859,-0.22235495,0.030543262,-0.84299403,100
1776161563709,2119420,-6.761244,-1.2861452,1.9639461,-0.7134906,0.44837508,0.062308256,100
1776161563745,2119008,-6.4570713,-1.4274535,2.6082163,-0.6719518,0.49235737,0.46914452,100
1776161563785,2118348,-7.704896,-1.7172552,3.2093754,-0.7831292,0.54367006,1.3231341,100
1776161563826,2118068,-9.580225,-1.6861196,3.195005,-1.4721853,0.71959925,2.3774874,100
1776161563867,2118807,-12.11659,-1.6022925,3.199795,-2.918714,0.9505063,3.6835175,100
1776161563905,2119861,-12.791995,-2.299254,4.8260384,-3.0848694,0.57543504,3.2424726,100
1776161563944,2120348,-8.777881,-3.5997694,5.6475425,-1.7421877,-0.19547687,2.147802,100
1776161563986,2120358,-8.603042,-2.55792,3.4608562,-0.63285637,-0.35185838,1.9853121,100
1776161564026,2121141,-10.749012,-2.8022158,1.2909353,-0.46303585,-0.15760323,1.59558,100
1776161564072,2122186,-11.148987,-3.3913996,1.1592072,-0.44837508,0.12217305,1.1044444,100
1776161564105,2122338,-10.186174,-3.9518428,1.8561685,-0.48380527,0.13316862,0.90041536,100
1776161564151,2122004,-8.006673,-3.9039416,2.8932278,-0.33964106,0.15393804,0.4373795,101
1776161564185,2121057,-7.489341,-3.5063622,2.3758957,-0.17592919,0.19425514,0.33841935,101
1776161564226,2119795,-7.575563,-3.6452756,1.9855015,0.24923302,0.21991149,0.058643065,101
1776161564265,2118326,-7.8533893,-3.963818,2.0741186,0.6267477,0.2602286,-0.3408628,101
1776161564307,2117517,-8.476104,-3.5973744,2.2800934,0.81489426,0.3640757,-0.7147123,101
1776161564349,2117284,-8.636573,-3.111178,2.6609075,1.1924089,0.41905355,-0.9419542,101
1776161564385,2117192,-9.798175,-3.3866096,3.2668567,1.7079792,0.33353242,-1.0030408,101
1776161564430,2117120,-11.781281,-3.7434728,3.712337,2.2675319,-0.02687807,-1.4391985,101
1776161564466,2117022,-13.081797,-3.0824373,3.3913996,2.6951375,-0.17592919,-1.6200147,101
1776161564507,2116832,-13.42429,-2.7998207,3.1926098,3.7885861,-0.6169739,-1.7153096,101
1776161564546,2116523,-9.884397,-1.1807626,2.6106112,3.1496212,-0.9334021,-2.0659463,101
1776161564586,2116116,-9.127559,-0.13172808,1.8801191,0.9798279,-1.078788,-1.9034561,101
1776161564626,2114388,-10.4161,-0.67061573,1.6549839,0.88453287,-1.1325442,-1.5076154,101
1776161564665,2110976,-10.260421,-2.4118216,1.5663668,0.56688297,-1.1520919,-1.0848967,101
1776161564705,2107972,-9.793385,-2.0070572,1.3292562,-0.47769663,-1.0445796,-0.97005403,101
1776161564745,2107017,-8.689264,-1.3388364,0.80234385,-0.56199604,-0.82833326,-1.105666,101
1776161564786,2106519,-8.277314,-1.7052801,0.39039415,-0.04642576,-0.55955255,-1.2620476,101
1776161564827,2105661,-7.9970927,-1.3484167,0.63948,-0.035430185,-0.17348573,-1.1801916,101
1776161564866,2104843,-7.8917103,-1.276565,1.2597996,-0.5534439,0.22968534,-0.6365216,101
1776161564905,2104111,-7.2618103,-1.2166885,2.0597484,-0.9822713,0.47158796,0.05375614,101
1776161564949,2102960,-6.5720344,-1.5280459,2.8381417,-1.1313224,0.4569272,0.9077458,101
1776161564987,2102164,-8.157561,-1.403503,3.3913996,-1.5577064,0.4092797,2.2064452,101
1776161565026,2102361,-10.698716,-1.6885146,3.3075726,-2.5644124,0.42271876,3.4807103,101
1776161565066,2103704,-12.904563,-1.4250585,3.6428804,-4.2919393,0.07696902,4.393343,101
1776161565107,2105162,-14.391892,-2.2441676,4.7230506,-3.5027013,-0.6768387,3.6334264,101
1776161565146,2106270,-10.368198,-5.5206046,3.2117703,-1.6701056,-0.9798279,2.547308,101
1776161565185,2106160,-9.874817,-2.55313,2.1771061,-0.99204516,-0.7806858,1.8655825,101
1776161565226,2104882,-10.425679,-3.070462,1.154417,-0.8210029,-0.47403142,1.0873401,101
1776161565264,2105294,-9.764644,-3.5686338,0.7592328,-0.44226643,-0.204029,0.7489208,101
1776161565306,2105363,-9.295213,-3.5638437,1.0849605,-0.49480084,0.04642576,0.69027776,101
1776161565346,2104828,-8.3324,-3.915917,1.3819474,-0.28955013,0.24923302,0.6218608,101
1776161565387,2102486,-7.510896,-3.8272998,1.7100701,0.25900686,0.47525316,0.516792,101
1776161565425,2100445,-6.9217124,-3.9278922,1.5951074,1.0091494,0.63163465,0.22235495,101
1776161565466,2099291,-7.66418,-4.2464347,2.2417727,1.4844025,0.643852,-0.43004912,101
1776161565505,2099123,-7.9108706,-3.7650282,2.7495246,1.609019,0.75502944,-1.0885619,101
1776161565545,2099369,-8.248573,-3.070462,2.816586,2.2064452,0.68783426,-1.4416419,101
1776161565586,2099886,-11.311851,-3.6596458,3.6788063,3.0702088,0.3933972,-1.6151277,101
1776161565625,2100559,-13.354834,-3.5111523,3.5662386,3.8166862,0.1160644,-2.1905627,101
1776161565668,2100887,-13.932042,-2.6489322,2.9267588,5.616295,0.3042109,-1.8423696,101
1776161565706,2100615,-13.905696,2.083699,1.6070827,7.2326446,-0.84788096,-0.7476991,101
1776161565745,2099000,-10.303532,1.7436008,2.304044,2.0097466,-1.6249015,-1.1948525,101
1776161565784,2096287,-10.514297,1.5998975,0.895751,-0.83077675,-1.6859881,-0.84788096,101
1776161565825,2096192,-11.0603695,1.1759726,2.1483655,-1.7214183,-1.7605137,-0.47036624,101
1776161565865,2096292,-10.557407,-2.174711,1.2286638,-1.8008307,-1.8387043,-0.63163465,101
1776161565905,2095466,-9.927508,-2.7950306,0.9077263,-1.8839084,-1.6310102,-0.9407325,101
1776161565946,2095049,-8.564721,-1.8896993,0.32333258,-1.4453071,-1.2730432,-1.2302825,101
1776161565989,2094028,-7.968352,-1.8873043,0.33770293,-0.47525316,-0.83077675,-1.3878858,101
1776161566029,2092171,-7.750402,-1.8370081,0.7424674,0.10140363,-0.31520647,-1.2290609,101
1776161566067,2090697,-7.4390445,-1.7220454,1.28375,-0.058643065,0.17592919,-0.8503244,101
1776161566107,2089126,-6.60317,-1.4537991,2.1004643,-0.35308012,0.44104472,-0.2919936,101
1776161566145,2087840,-6.600775,-1.2933303,2.8357465,-0.376293,0.41905355,0.6035349,101
1776161566185,2087790,-8.706029,-1.2933303,3.2668567,-0.8735373,0.47158796,1.5515977,100
1776161566225,2089288,-10.382568,-0.8741955,3.0800424,-2.1820107,0.6658431,2.5509732,100
1776161566265,2091369,-11.891454,-0.5676283,3.367449,-3.2693508,0.58276546,3.5124753,100
1776161566308,2091980,-12.748884,-1.7100701,3.8991516,-3.8069122,0.31031954,3.6639698,100
1776161566347,2091646,-9.932298,-2.7567096,4.627249,-3.2583551,-0.36041048,3.1325169,100
1776161566385,2091088,-10.588543,-3.1351285,3.020166,-1.7776178,-0.61208695,2.8307495,100
1776161566428,2091852,-11.50585,-3.1830297,1.4322436,-1.4074335,-0.4129449,2.1539109,100
1776161566466,2092343,-10.897506,-3.578214,0.91491145,-1.1301007,-0.1563815,1.491733,100
1776161566508,2092481,-10.4304695,-3.748263,1.2286638,-0.8210029,-0.010995574,1.1472049,100
1776161566551,2092183,-9.017386,-3.6285102,1.9232302,-0.5766568,0.13439035,0.93584555,100
1776161566591,2090872,-7.4366493,-3.9278922,1.9615511,-0.28955013,0.35308012,0.8063421,100
1776161566632,2089154,-7.4366493,-3.9278922,1.9615511,0.32742378,0.47769663,0.625526,100
1776161566664,2087917,-7.4749703,-4.3997183,2.433377,0.7819075,0.49113566,0.119729586,100
1776161566706,2087535,-7.544427,-4.2919407,3.0057955,1.047023,0.53878313,-0.6059783,100
1776161566748,2087573,-8.574301,-3.537498,3.453671,1.5650368,0.5143485,-1.0677924,100
1776161566785,2088015,-10.44484,-4.1626077,3.7219174,2.180789,0.22357668,-1.5344934,100
1776161566826,2088490,-11.8579235,-3.3866096,3.9087317,1.7348573,-0.062308256,-1.9608774,100
1776161566865,2088151,-12.475847,-2.2800934,3.705152,1.3561208,-0.2602286,-2.1270328,100
1776161566912,2086838,-13.706906,-2.6321669,3.8177195,2.2748623,-0.5742133,-2.252871,100
1776161566947,2085524,-12.847081,-3.0800424,2.8668823,3.4562755,-1.0922271,-2.5949554,100
1776161566985,2084248,-11.2352085,-1.5184656,1.5998975,2.4226916,-1.505172,-2.6181684,100
1776161567025,2083032,-11.93696,-0.16525888,1.5208607,1.1643091,-1.6249015,-2.3457224,100
1776161567073,2080880,-11.668714,-0.69696134,2.1579456,0.40317106,-1.6236799,-1.9926424,100
1776161567105,2078183,-11.007678,-0.8813807,2.0621433,-0.09773844,-1.536937,-1.8387043,100
1776161567148,2077375,-9.5347185,-1.2190835,1.5112804,-0.7122689,-1.3048081,-1.709201,100
1776161567186,2077190,-7.9539814,-1.0442445,1.0993308,-0.7733554,-0.90285885,-1.4660766,100
1776161567224,2077038,-6.981589,-1.5400212,1.0083187,0.002443461,-0.46914452,-0.9957104,100
1776161567267,2077023,-6.653466,-1.8609587,1.1927379,-0.12583824,0.0842994,-0.26633725,100
1776161567310,2077192,-5.7792706,-0.92928183,2.0693285,-0.9407325,0.61453044,0.50579643,100
1776161567345,2077248,-5.3337903,-1.0825654,2.687253,-1.1081096,0.906524,1.4123205,100
1776161567386,2077162,-6.739688,-1.410688,3.0081906,-0.88086766,1.0042624,2.6169467,100
1776161567427,2077228,-8.94314,-1.6382184,3.1566842,-1.4184291,1.0177015,3.716504,100
1776161567465,2077902,-12.734513,-1.4346386,3.070462,-2.8576276,0.84788096,4.6718974,100
1776161567508,2078628,-17.527021,-1.2286638,2.9339437,-4.3090434,0.6377433,4.9162436,100
1776161567550,2079177,-15.464878,-3.0896225,3.6069546,-3.055548,-0.4642576,2.951701,100
1776161567584,2078786,-10.25084,-2.7638948,3.3985848,-1.9303342,-0.7770206,1.9938642,100
1776161567625,2079238,-12.454292,-1.2957253,0.023950562,-1.6383406,-0.6243043,1.4611896,100
1776161567665,2081063,-11.740565,-2.0789087,-0.50775194,-1.7751744,-0.56199604,1.0763446,100
1776161567704,2081529,-10.45442,-2.7543147,-0.12454292,-2.3823745,-0.49602258,1.0372492,100
1776161567748,2081264,-8.818597,-2.9722648,0.64906025,-2.5729644,-0.4728097,1.0360274,100
1776161567788,2079840,-7.685735,-2.9171784,1.020294,-2.2907448,-0.2883284,1.2315043,100
1776161567824,2077369,-7.1875634,-2.4836733,0.76402295,-1.7654005,0.11362094,1.5259414,100
1776161567866,2076001,-7.5204763,-3.1566842,1.152022,-1.1863003,0.53023106,1.7030923,100
1776161567905,2075696,-8.385092,-3.7817938,1.9471806,-0.5021312,0.8784242,1.5833627,100
1776161567945,2075650,-8.353956,-3.9877687,2.5651052,0.0036651916,1.1301007,0.9578367,100
1776161567986,2075329,-7.776747,-4.351817,2.98424,0.8332202,1.2351695,0.1600467,100
1776161568027,2074487,-9.072473,-4.905075,2.986635,1.7336355,1.2486086,-0.9456194,100
1776161568072,2073869,-14.789472,-6.1097884,3.233326,2.9565878,0.9957104,-2.411696,100
1776161568107,2074269,-16.674381,-4.900285,3.3458934,2.1197023,0.25778514,-3.5210273,100
1776161568148,2074493,-12.945279,-2.2872787,2.2920687,0.9101892,0.015882496,-4.1648793,100
1776161568185,2073391,-10.619679,-2.4405622,1.748391,2.4153612,-0.5497787,-4.039041,100
1776161568225,2071372,-10.794518,-4.3230762,1.6142678,3.0176742,-1.0091494,-2.7061331,100
1776161568268,2069181,-10.782543,-1.4130832,1.6142678,2.6743681,-1.1203269,-2.502104,100
1776161568305,2068081,-11.1513815,-2.8884377,1.5400212,1.5283848,-1.2046263,-1.9633209,100
1776161568347,2067720,-10.598124,-2.5459447,1.748391,1.990199,-1.210735,-1.4343116,100
1776161568385,2068144,-10.468791,-2.811796,0.13891326,2.1038198,-1.0128145,-0.9309586,100
1776161568427,2068558,-9.419756,-1.5496013,0.49577662,0.44715336,-0.8051204,-0.548557,100
1776161568465,2069337,-8.617413,-1.0610099,1.0586149,-0.6133087,-0.6743952,-0.13072516,100
1776161568505,2070062,-8.033018,-1.8226378,0.76162785,-0.5766568,-0.50823987,0.2602286,100
1776161568547,2070660,-7.915661,-1.9807115,0.48380136,-0.72692966,-0.2932153,0.6072,100
1776161568585,2071128,-7.7456117,-1.5040953,1.0490346,-1.3610078,-0.11362094,0.89675015,100
1776161568628,2071360,-8.033018,-1.1472319,1.5017003,-1.7922786,0.0061086523,1.3707817,100
1776161568665,2071155,-10.1646185,-1.5496013,1.5160706,-1.990199,0.12339478,2.2235496,100
1776161568707,2071048,-12.710564,-1.8250328,1.6382184,-2.5815165,0.2883284,3.1117475,100
1776161568747,2071454,-13.8386345,-2.3711057,1.49212,-3.010344,0.19914207,3.1019738,100
1776161568787,2071871,-12.233947,-1.4873298,2.3279946,-3.44528,-0.10995574,2.856406,100
1776161568827,2072381,-11.661529,-1.4705645,2.213032,-2.992018,-0.6768387,2.6364944,100
1776161568869,2073463,-12.650687,-2.1507604,0.8622202,-2.5729644,-1.0751228,2.5289822,100
1776161568906,2074686,-11.651948,-1.9807115,-0.28022158,-2.8075366,-1.2400564,2.4397957,100
1776161568945,2076023,-11.218443,-2.3327847,-0.7712081,-3.1483996,-1.2119566,2.2748623,100
1776161568985,2077288,-10.983727,-2.5291793,-0.6514553,-3.771482,-1.0885619,1.9376645,100
1776161569025,2077684,-9.673632,-2.512414,-0.57241845,-3.821573,-0.88208944,1.6297885,100
1776161569065,2076580,-8.861708,-2.5890558,-0.7544427,-3.3414328,-0.5534439,1.3854424,100
1776161569105,2074736,-8.253364,-2.6106112,-0.7328872,-2.6804767,-0.15027285,1.0897835,100
1776161569145,2072554,-8.131216,-2.6537223,-0.6658256,-2.235767,0.22602014,0.784351,100
1776161569187,2070695,-8.694054,-2.4405622,-0.11735775,-2.1697934,0.49480084,0.5546656,100
1776161569225,2069330,-9.173065,-2.3351798,0.47901124,-2.2944098,0.6976081,0.40194935,100
1776161569265,2068545,-9.285633,-2.1052544,1.0059236,-2.4471262,0.87598073,0.3042109,100
1776161569305,2068261,-9.395805,-2.2369826,1.5280459,-2.2870796,0.8564331,0.35796702,100
1776161569345,2068347,-9.889187,-2.474093,2.1507604,-1.8753563,0.68783426,0.50701815,100
1776161569385,2068969,-11.414838,-3.0393262,2.7543147,-1.7763962,0.35185838,0.47158796,100
1776161569429,2069811,-10.543037,-2.7998207,3.1902149,-2.453235,-0.03176499,0.1881465,100
1776161569465,2070923,-9.858051,-1.872934,3.2309308,-2.3970351,-0.63407815,0.11484267,100
1776161569505,2072066,-10.404124,-2.2561429,2.4549327,-2.3872614,-1.1068878,0.07086037,100
1776161569545,2073361,-10.411309,-2.1579456,1.537626,-2.8893926,-1.3744467,0.0061086523,100
1776161569588,2074503,-9.893977,-2.0621433,0.9891582,-3.0298917,-1.486846,0.014660766,100
1776161569624,2075483,-9.668841,-2.55313,0.82629436,-2.8393016,-1.5650368,0.12583824,100
1776161569666,2075934,-9.300003,-2.6968334,0.766418,-2.7207937,-1.500285,0.3494149,100
1776161569706,2074912,-8.873683,-2.5004387,0.54367775,-2.5460863,-1.2498302,0.6805039,100
1776161569746,2072837,-8.615017,-2.555525,0.30896226,-2.1319196,-0.8894198,1.0897835,100
1776161569785,2070502,-8.708425,-2.7902405,0.27782652,-1.7275269,-0.4251622,1.536937,100
1776161569825,2068658,-8.674893,-2.8237712,0.37841886,-1.2913691,0.10262536,1.958434,100
1776161569866,2067466,-8.607832,-3.0800424,0.6778009,-0.675617,0.4361578,2.1331415,100
1776161569905,2066605,-9.072473,-3.369844,1.0610099,0.014660766,0.63285637,2.058616,100
1776161569945,2065899,-9.57304,-3.7793987,1.5232557,0.47158796,0.7648033,1.6798794,100
1776161569985,2065642,-9.347904,-3.870411,1.7340207,0.77946407,0.78801614,1.102001,100
1776161570025,2065560,-9.213781,-3.8608305,2.0286126,0.9443977,0.7770206,0.5717699,100
1776161570066,2066200,-9.38383,-3.9278922,2.512414,1.0115929,0.625526,0.14172074,100
1776161570107,2067122,-9.973014,-4.1434474,3.3363132,0.96761054,0.30298916,-0.34208453,100
1776161570146,2068357,-10.337063,-4.0763855,4.2344594,0.8344419,-0.09773844,-0.8784242,100
1776161570185,2069387,-12.262688,-3.7243123,4.553002,0.65118235,-0.33353242,-1.3768903,100
1776161570224,2070065,-13.20634,-3.3434985,4.533841,1.1606439,-0.5864306,-1.9095647,100
1776161570265,2070341,-11.374122,-3.4895968,4.627249,2.3628268,-0.8735373,-2.4556782,100
1776161570307,2069589,-10.5214815,-2.636957,3.3051775,3.0531044,-1.2547172,-2.823419,100
1776161570345,2068737,-10.540643,-1.2478243,2.512414,2.3848178,-1.6578883,-2.8319712,100
1776161570386,2068322,-11.788466,-0.3209375,1.9112549,1.1753048,-1.8106046,-2.4324653,100
1776161570425,2067812,-11.668714,-0.8478499,1.8154526,-0.07086037,-1.7837266,-2.0842721,100
1776161570465,2066491,-11.457949,-1.4154782,1.877724,-0.7489208,-1.5381587,-1.9315559,100
1776161570506,2065281,-10.353827,-1.1831578,1.6238481,-1.1447614,-1.1301007,-1.9095647,100
1776161570545,2064343,-8.478498,-1.1184913,1.2741699,-0.50946164,-0.6059783,-1.9071213,100
1776161570585,2063780,-7.4318595,-1.7340207,0.895751,0.43982297,-0.062308256,-1.7055358,100
1776161570626,2063576,-6.653466,-1.5017003,1.3148859,0.5131268,0.46181414,-1.1899655,100
1776161570665,2063741,-6.0906277,-1.1951331,1.9926867,0.2125811,0.95417154,-0.44226643,100
1776161570707,2064192,-5.5277896,-1.1975281,2.6633024,-0.10140363,1.3231341,0.47891834,100
1776161570745,2064256,-5.922974,-1.022689,3.2860172,-0.38362336,1.4636332,1.3121386,100
1776161570785,2064722,-6.6654415,-1.0825654,3.4393008,-0.7098254,1.5234979,2.3286183,100
1776161570827,2066010,-8.543165,-1.2214787,3.6069546,-1.3304645,1.378112,3.5027013,100
1776161570866,2067506,-11.32143,-1.4154782,4.4595947,-2.5277603,0.8686504,4.3725734,100
1776161570906,2068683,-14.8182125,-1.4394288,5.0942845,-4.7781878,0.16249016,4.579046,100
1776161570946,2069635,-17.685095,-1.1735775,4.088361,-6.075666,-0.87109387,3.580892,100
1776161570986,2070724,-16.00137,-6.2822323,2.2465627,-3.0445523,-1.1691961,1.9046779,100
1776161571027,2071613,-10.851999,-4.895495,1.3244661,-0.7806858,-0.9272934,1.0775663,100
1776161571066,2072229,-10.8711605,-4.8260384,0.1963946,1.2657127,-0.7867944,0.9615019,100
1776161571105,2072123,-9.81494,-5.7313695,0.30177706,1.7458528,-0.5314528,0.7122689,100
1776161571146,2073498,-8.425808,-5.4271975,0.8694054,1.5393804,-0.40317106,0.25900686,100
1776161571186,2073858,-7.6522045,-3.9877687,1.1663923,1.3548992,-0.35063666,-0.17837265,101
1776161571226,2074278,-7.4318595,-3.2644615,0.8071339,1.3390167,-0.24678956,-0.5119051,101
1776161571267,2074101,-7.889315,-3.3746343,0.5867888,1.3121386,-0.11728613,-0.9627236,101
1776161571305,2073851,-8.2749195,-3.6021645,0.64906025,1.5894713,-0.02321288,-1.3109168,101
1776161571345,2073915,-9.225757,-3.580609,0.63948,1.8851302,0.039095376,-1.6542231,101
1776161571385,2074138,-9.417361,-3.0584867,0.65864044,2.117259,0.052534413,-1.9620992,101
1776161571426,2073913,-9.58262,-2.7016234,0.83826965,2.2650883,0.004886922,-2.1649065,101
1776161571465,2072990,-10.863975,-2.7159936,1.1472319,2.483778,-0.08552113,-2.1856759,101
1776161571508,2071796,-12.423157,-2.55313,1.2214787,2.3200662,-0.12217305,-2.1111503,101
1776161571548,2070898,-14.298486,-2.4357722,1.8489834,1.8081611,-0.112399206,-1.9511036,101
1776161571586,2070301,-15.306804,-1.9831065,2.3567352,1.4147639,-0.010995574,-2.0720549,101
1776161571625,2069669,-11.903429,-1.5232557,2.7998207,1.8118263,-0.24312437,-2.7574458,101
1776161571665,2069570,-8.579091,-0.9197016,3.0393262,2.1160371,-0.3848451,-3.0396655,101
1776161571706,2070475,-9.441312,-0.469431,1.621453,2.0720549,-0.25900686,-2.7317894,101
1776161571745,2071444,-9.893977,-0.85264003,1.920835,1.1398746,-0.22968534,-2.0305161,101
1776161571785,2071882,-9.577829,-0.8741955,3.1303384,0.20647246,-0.2968805,-1.3952162,101
1776161571827,2071498,-8.655733,-1.0442445,3.1447089,-0.26511553,-0.1563815,-0.90285885,101
1776161571867,2071228,-7.01991,-0.71372676,2.682463,-0.35796702,0.10629055,-0.5119051,101
1776161571907,2071938,-5.927764,-0.72330695,2.601031,-0.2773328,0.38362336,-0.036651913,101
1776161571949,2073078,-6.354084,-1.1137011,2.9578943,-0.3567453,0.57543504,0.6035349,101
1776161571985,2073928,-6.8211203,-1.0011334,3.5470781,-0.5925393,0.63163465,0.91751957,101
1776161572027,2073954,-6.9241076,-0.8574301,3.6524606,-1.1924089,0.75136423,1.7592919,101
1776161572066,2073887,-7.4031186,-1.3939227,3.6404853,-1.1154399,0.6927212,2.3518312,101
1776161572106,2074337,-9.391015,-1.875329,3.8153245,-1.2583824,0.5900958,3.042109,101
1776161572146,2075163,-12.1381445,-2.1076493,4.3661876,-1.7421877,0.5204572,3.408628,101
1776161572186,2075719,-14.317646,-1.9663411,4.7230506,-4.0292673,-0.052534413,3.3487632,101
1776161572228,2075991,-16.406136,-3.0321412,3.8033493,-3.4892623,-0.5009095,2.5900686,101
1776161572266,2076434,-14.209868,-4.950581,2.730364,-0.81245077,-0.5045747,1.6517797,101
1776161572305,2076330,-9.16109,-4.533841,1.8130575,0.105068825,-0.37507126,1.3414601,101
1776161572347,2076659,-8.250969,-4.109916,1.6837245,1.6285667,-0.21746802,1.0567969,101
1776161572386,2077927,-8.361141,-5.070334,2.6513271,1.6261233,-0.4642576,0.7696902,101
1776161572425,2078303,-8.12882,-4.763767,2.3064392,1.2082914,-0.6536258,0.065973446,101
1776161572465,2078266,-8.488079,-3.6069546,1.8633537,0.8246681,-0.6743952,-0.41172317,101
1776161572506,2078536,-8.461734,-2.2681181,1.3699721,0.18448131,-0.6010914,-1.4636332,101
1776161572547,2078536,-8.461734,-2.2681181,1.3699721,0.3933972,-0.5705481,-2.01219,101
1776161572588,2078328,-9.537114,-2.684858,1.8034773,0.6927212,-0.56688297,-2.4288,101
1776161572625,2077239,-10.097557,-2.428587,2.0429828,0.79534656,-0.55833083,-2.5864034,101
1776161572665,2075839,-10.557407,-1.8633537,2.4046364,0.90285885,-0.56321776,-2.783102,101
1776161572705,2075839,-10.557407,-1.8633537,2.4046364,0.8222246,-0.5717699,-2.765998,101
1776161572746,2072785,-10.394544,-0.6682207,3.1423137,0.516792,-0.5143485,-2.1917844,101
1776161572787,2072417,-10.0736065,-0.3664436,3.2596714,0.43004912,-0.40194935,-1.8460348,101
1776161572826,2072618,-9.347904,0.63948,3.3961897,-0.53878313,0.0061086523,-0.3042109,101
1776161572867,2073088,-9.3598795,1.0705901,3.7602382,-1.3903292,0.16615535,0.7049385,101
1776161572905,2073760,-10.305926,-0.31854248,3.8943613,-1.5723672,0.20280726,1.1239921,101
1776161572945,2074425,-9.122769,-0.35207325,3.6644359,-1.9401081,0.12095132,1.473407,101
1776161572986,2074425,-9.122769,-0.35207325,3.6644359,-1.4501941,-0.112399206,1.7654005,101
1776161573025,2077041,-9.026967,-1.3675771,2.3567352,-1.2669345,-0.12339478,1.9730947,101
1776161573065,2078513,-9.549089,-2.0070572,2.2920687,-1.5271631,-0.096516706,2.2638667,101
1776161573105,2079308,-9.60657,-2.2968588,2.2896738,-1.8863518,-0.02076942,2.547308,101
1776161573147,2079791,-9.482027,-2.7207837,2.3998463,-1.7421877,-0.05009095,2.5595255,101
1776161573185,2079661,-9.429337,-2.56271,2.596241,-1.9022343,-0.02076942,2.5179865,101
1776161573228,2078744,-9.537114,-2.821376,2.1363902,-1.9474384,0.02565634,2.0500638,101
1776161573266,2077730,-9.36946,-3.6812015,2.1866863,-1.600467,0.032986723,1.8606955,101
1776161573306,2077182,-8.914399,-4.133867,2.260933,-0.8344419,0.087964594,1.3219124,101
1776161573347,2077182,-8.914399,-4.133867,2.260933,-0.07452556,0.22602014,0.61575216,101
1776161573386,2076937,-8.77309,-4.553002,2.7902405,0.10751228,0.25167647,0.43371433,101
1776161573425,2076923,-9.496398,-4.976927,2.9722648,0.43860126,0.24801129,0.073303826,101
1776161573465,2076923,-9.496398,-4.976927,2.9722648,0.7696902,0.25778514,-0.5326745,101
1776161573505,2076804,-10.408915,-5.209247,2.9435241,0.95905846,0.33475417,-1.1117748,101
1776161573547,2076658,-10.509506,-4.4907303,2.6776729,2.8454103,0.17715092,-1.9559906,101
1776161573585,2076346,-11.699849,-4.4667797,1.9926867,3.368311,0.095294975,-2.239432,101
1776161573625,2076346,-11.699849,-4.4667797,1.9926867,3.8411207,-0.1600467,-2.5778513,101
1776161573665,2076154,-11.345381,-2.8836477,1.4442189,3.5833356,-0.6719518,-2.8026497,101
1776161573705,2075604,-12.554885,-1.7819219,1.1735775,3.2424726,-1.0604621,-2.5033257,101
1776161573746,2075604,-12.554885,-1.7819219,1.1735775,2.701246,-1.2156218,-2.4581218,101
1776161573786,2073509,-10.86637,-0.67061573,1.4825398,1.4135422,-1.2925909,-2.3542747,101
1776161573826,2073509,-10.86637,-0.67061573,1.4825398,0.48624873,-1.2339478,-2.3554964,101
1776161573865,2071582,-9.570644,-1.0610099,1.5160706,-0.02687807,-1.0873401,-2.090381,101
1776161573906,2069846,-8.95272,-1.0897505,1.3699721,-0.030543262,-0.8344419,-1.6749926,101
1776161573946,2069041,-8.246179,-1.6070827,1.3915277,0.24801129,-0.5155703,-1.2889256,101
1776161573985,2068952,-7.3576126,-1.8705388,1.3987129,0.28344148,-0.1441642,-0.9309586,101
1776161574025,2069113,-6.39001,-1.405898,1.8034773,0.1001819,0.23579398,-0.24190263,101
1776161574065,2069225,-7.3025265,-1.1472319,3.451276,-0.27366763,0.5693264,0.593761,101
1776161574107,2069225,-7.3025265,-1.1472319,3.451276,-0.96761054,0.8491027,1.4807373,101
1776161574146,2069559,-10.01373,-1.408293,3.8249047,-1.3377949,0.97127575,2.5216517,101
1776161574187,2069559,-10.01373,-1.408293,3.8249047,-1.772731,0.9773844,3.2522466,102
1776161574225,2072125,-10.832839,-1.6310333,4.1865582,-2.4178047,0.72204274,3.3035593,102
1776161574265,2072125,-10.832839,-1.6310333,4.1865582,-2.3958135,0.18936823,3.0066788,102
1776161574305,2073143,-10.765778,-2.0525632,4.0236945,-2.2101104,-0.20525073,2.7794368,102
1776161574345,2074874,-11.460344,-2.0741186,2.8716724,-2.0182989,-0.3408628,2.4569001,102
1776161574386,2076221,-11.371727,-2.5698953,1.8609587,-2.0463986,-0.3359759,2.0964894,102
1776161574425,2075998,-9.941878,-3.5159426,2.0765138,-1.6358972,-0.27977628,1.7971655,102
1776161574466,2075998,-9.941878,-3.5159426,2.0765138,-1.7837266,-0.1966986,1.672549,102
1776161574506,2075201,-8.785066,-3.027351,2.471698,-1.4330899,-0.07941248,1.6126842,102
1776161574545,2074267,-8.279709,-3.8177195,2.217822,-0.7110472,0.042760566,1.4880677,102
1776161574585,2073291,-7.9204507,-4.2512245,2.2417727,-0.13194689,0.15393804,1.0482447,102
1776161574625,2072194,-7.8150682,-4.509891,2.555525,0.17837265,0.3371976,0.4251622,102
1776161574665,2072091,-8.935955,-4.6248536,2.8261664,0.55833083,0.50701815,-0.20158553,102
1776161574706,2072091,-8.935955,-4.6248536,2.8261664,1.4367551,0.54244834,-0.98349303,102
1776161574751,2071685,-11.230418,-4.24883,2.895623,1.7421877,0.5497787,-1.8680259,102
1776161574785,2071345,-12.265082,-3.7602382,2.7423394,1.91323,0.50946164,-2.0549507,102
1776161574827,2071345,-12.265082,-3.7602382,2.7423394,2.4459045,0.23945917,-2.3493876,102
1776161574867,2070901,-11.716615,-3.1207583,2.5004387,2.9272664,-0.10995574,-2.8612928,102
1776161574905,2070901,-11.716615,-3.1207583,2.5004387,4.9651127,-0.5119051,-3.3389895,102
1776161574945,2070358,-11.50585,-2.5195992,0.80234385,5.2192326,-0.9077458,-2.7293458,102
1776161574986,2070092,-12.890192,-1.3053056,0.7065416,3.2290337,-1.1679744,-2.4397957,102
1776161575025,2069203,-12.063898,-0.77599823,1.6501937,1.2278391,-1.378112,-1.9926424,102
1776161575064,2062577,-10.363408,-1.0705901,1.8537735,-0.05009095,-1.4453071,-1.7348573,102
1776161575107,2062577,-10.363408,-1.0705901,1.8537735,-0.5558874,-1.3475688,-1.6126842,102
1776161575146,2060846,-8.935955,-1.4466139,1.0155039,-0.73914695,-1.1154399,-1.4514158,102
1776161575186,2062043,-7.7072906,-1.6573789,0.91491145,-0.376293,-0.8051204,-1.2351695,102
1776161575227,2062043,-7.7072906,-1.6573789,0.91491145,-0.23579398,-0.33841935,-0.9615019,102
1776161575265,2061717,-6.0235662,-1.027479,2.1363902,-0.63163465,0.1966986,-0.41172317,102
1776161575305,2061717,-6.0235662,-1.027479,2.1363902,-0.61453044,0.7012733,0.68539083,102
1776161575346,2061057,-6.8738112,-1.4514041,3.0584867,-0.59498274,0.95417154,1.7837266,102
1776161575385,2060416,-7.9659567,-1.793897,3.3866096,-1.0042624,1.0360274,3.0360003,102
1776161575426,2060502,-10.461605,-1.6885146,3.6117446,-2.3591616,1.0983357,4.0231586,102
1776161575465,2063124,-12.303404,-1.4657744,4.0668054,-3.3206635,0.73914695,4.1758747,102
1776161575506,2063124,-12.303404,-1.4657744,4.0668054,-3.7055085,-0.017104227,3.5601227,102
1776161575545,2064411,-11.613627,-1.8657488,4.2727804,-2.4874432,-0.48991394,2.941927,102
1776161575587,2065663,-12.487823,-2.900413,2.1387851,-1.6847663,-0.376293,2.1820107,102
1776161575625,2066419,-12.375256,-2.9626844,1.1903429,-1.1264355,-0.17592919,1.7238617,102
1776161575666,2066211,-11.189703,-3.7578433,1.0945407,-0.66706485,-0.09773844,1.4049901,102
1776161575705,2065837,-9.376645,-3.966213,1.8298229,-0.8906415,-0.008552114,1.2327261,102
1776161575746,2065456,-8.227018,-3.2764368,2.1938715,-0.8332202,0.06719518,1.1753048,102
1776161575784,2064530,-7.798303,-3.2476962,1.9878967,-0.51068336,0.15149458,1.0372492,102
1776161575826,2063369,-7.6905255,-3.8871763,1.8465884,-0.32742378,0.24801129,0.59620446,102
1776161575865,2062204,-7.8677597,-4.239249,2.5746853,0.16982053,0.43004912,-0.12095132,102
1776161575905,2062204,-7.8677597,-4.239249,2.5746853,1.0726794,0.5558874,-0.71593404,102
1776161575947,2062070,-8.93835,-4.4907303,2.9698696,2.0182989,0.5021312,-1.3060299,102
1776161575986,2062096,-10.303532,-4.727841,3.2955973,2.4239132,0.4447099,-1.8301523,102
1776161576025,2061987,-12.015997,-4.04525,2.8477218,2.6645942,0.25900686,-2.172237,102
1776161576065,2061895,-14.894855,-3.5638437,3.3051775,3.0469959,-0.30787608,-2.624277,102
1776161576105,2061895,-14.894855,-3.5638437,3.3051775,3.8374555,-0.8417723,-3.2363641,102
1776161576145,2061715,-11.759726,-2.179501,1.5783421,3.7152824,-1.1398746,-2.9724703,102
1776161576186,2061101,-11.402863,-1.276565,0.9220966,2.6352727,-1.428203,-2.6352727,102
1776161576226,2060379,-12.463872,-0.895751,1.7244405,1.237613,-1.6811012,-2.0195205,102
1776161576266,2059181,-12.073479,-1.1687875,2.601031,0.204029,-1.6420058,-1.6566665,102
1776161576305,2055940,-10.65321,-1.5400212,1.532836,-0.53878313,-1.5222762,-1.4245378,102
1776161576346,2053601,-9.539509,-1.27896,1.108911,-0.75625116,-1.2925909,-1.3817772,102
1776161576387,2053398,-8.55035,-1.4561942,0.77360314,-0.5021312,-0.90408057,-1.1643091,102
1776161576426,2053751,-7.88692,-1.6909096,0.6801959,-0.19914207,-0.3640757,-0.7806858,102
1776161576467,2053720,-7.1061316,-1.9399955,0.92928183,-0.2284636,0.14905111,-0.35796702,102
1776161576506,2053564,-5.925369,-1.6909096,1.4514041,-0.2125811,0.59986967,0.2773328,102
1776161576545,2053137,-5.707419,-1.6286383,2.0477731,0.004886922,0.9260717,1.070236,102
1776161576589,2052594,-6.859441,-1.7867119,2.5890558,-0.03176499,1.0714576,1.8936822,102
1776161576625,2052310,-8.629388,-1.8178476,3.2476962,-0.75625116,1.0775663,2.6450465,102
1776161576666,2052739,-10.87595,-1.362787,3.84167,-1.9193386,1.0323622,3.4574974,102
1776161576706,2053826,-13.366809,-0.9676027,3.875201,-3.2583551,0.7648033,4.056145,102
1776161576746,2055217,-14.03982,-1.1017258,4.2536197,-3.7788124,0.040317107,3.540575,102
1776161576785,2056660,-11.081925,-2.1196246,4.648804,-2.9138272,-0.38362336,3.0946434,102
1776161576826,2057298,-10.796913,-2.7926354,3.1207583,-1.2596041,-0.3726278,2.7550023,102
1776161576868,2058309,-12.447107,-3.8871763,2.2250073,-0.312763,-0.12950343,2.1331415,102
1776161576908,2059869,-11.9561205,-4.756582,2.2034516,-0.034208454,0.09896017,1.6737708,102
1776161576945,2060248,-9.858051,-4.349422,2.8237712,0.4361578,0.118507855,1.2681563,102
1776161576989,2059866,-8.52161,-4.6631746,3.324338,0.9786061,0.0720821,0.7110472,102
1776161577025,2059230,-8.159956,-4.9194455,3.2285357,1.3500122,0.11728613,0.14782938,102
1776161577065,2058372,-8.016253,-5.190087,2.898018,1.8655825,0.09162979,-0.6585127,102
1776161577105,2057954,-8.133611,-5.3337903,3.369844,2.814867,0.05009095,-1.3805555,102
1776161577146,2058144,-8.811412,-4.737421,2.9890301,3.6932912,-0.0720821,-1.863139,102
1776161577186,2058420,-9.4508915,-4.100336,2.6130064,4.1538835,-0.35918877,-2.1050417,102
1776161577226,2058562,-11.424418,-3.372239,2.383081,4.3041563,-0.63285637,-2.144137,102
1776161577265,2058662,-12.904563,-2.9890301,1.6909096,4.2455134,-0.9492846,-2.1551325,102
1776161577305,2058817,-13.357228,-2.6633024,1.3436265,3.5662313,-1.1362094,-1.990199,102
1776161577346,2058243,-13.44824,-1.9615511,0.9197016,3.3707545,-1.4086553,-1.8606955,102
1776161577387,2057183,-12.617156,-2.3711057,0.7975537,3.4012976,-1.5039502,-1.6896533,102
1776161577425,2055251,-11.711824,-2.4549327,-0.29219687,3.50881,-1.4648548,-1.4465289,102
1776161577466,2053085,-11.3334055,-2.5651052,-1.1735775,2.9541442,-1.4941764,-1.1753048,102
1776161577505,2051594,-11.113061,-1.9950818,-0.7592328,2.6010642,-1.3035865,-0.956615,102
1776161577544,2050760,-11.474714,-2.7734752,-1.4442189,2.4007003,-1.1239921,-0.82833326,102
1776161577586,2049438,-11.331011,-2.9339437,-1.4873298,2.157576,-0.7147123,-0.9370673,102
1776161577626,2048159,-10.84721,-3.3554738,-2.2274022,2.0525072,-0.36774087,-1.2131784,102
1776161577665,2047391,-9.932298,-3.1854248,-2.0238225,1.8301523,0.028099801,-1.5625933,102
1776161577706,2046418,-9.764644,-3.240511,-2.0334027,1.8497,0.5045747,-2.0134118,102
1776161577747,2045365,-9.893977,-3.2692516,-2.050168,2.0011945,0.8943067,-2.4129176,102
1776161577786,2044472,-10.64363,-3.113573,-1.7531811,2.2064452,1.319469,-2.764776,102
1776161577825,2043819,-11.359752,-3.111178,-1.9256252,2.6487117,1.5442673,-2.946814,102
1776161577866,2042829,-12.186046,-2.941129,-1.3388364,3.073874,1.6114625,-3.0567696,102
1776161577905,2042737,-12.5956,-2.9722648,-0.8861708,3.4440582,1.5027285,-3.0799825,102
1776161577950,2042258,-13.44824,-2.9626844,-0.3592584,3.6432004,1.2571607,-3.0946434,102
1776161577985,2041395,-13.615894,-2.5866606,0.24669078,3.6688566,0.96761054,-3.0812044,102
1776161578025,2040537,-13.091377,-2.1627357,0.67540586,3.5210273,0.68783426,-3.015231,102
1776161578064,2040473,-12.597996,-1.7747366,1.025084,3.681074,0.39828414,-2.8991663,102
1776161578105,2040897,-12.090243,-1.7555761,1.3987129,3.3475416,0.10262536,-2.4862216,102
1776161578148,2041275,-11.49148,-1.233454,1.8513784,2.4251351,-0.10995574,-2.0366247,102
1776161578185,2041750,-10.234076,-0.85024494,2.3758957,1.2180653,-0.21991149,-1.5564847,102
1776161578226,2042080,-10.2221,-0.24429573,3.1399186,0.1282817,-0.19058995,-1.1117748,102
1776161578265,2042602,-9.098819,-0.03113573,3.7338927,-0.3371976,-0.22113322,-0.83199847,102
1776161578304,2043082,-7.4749703,-0.24908584,4.2057185,-0.47036624,-0.19303341,-0.119729586,102
1776161578345,2044122,-7.206724,-0.1916045,4.344632,-0.57787853,0.22479841,0.6585127,102
1776161578385,2046095,-7.8270435,-1.1208863,4.081176,-0.66950834,0.4251622,1.1997393,102
1776161578425,2048668,-8.164746,-1.3292562,4.6871247,-0.5338962,0.39950588,1.455081,102
1776161578467,2051109,-7.973142,-1.3148859,4.7589765,-0.3848451,0.38728857,1.455081,102
1776161578506,2052592,-8.207857,-1.2957253,4.1985335,-0.64996064,0.35063666,1.4147639,102
1776161578547,2053427,-9.041337,-1.0729852,3.882386,-1.1667526,0.28588495,1.3231341,102
1776161578586,2053656,-9.386225,-1.027479,3.5111523,-1.65911,0.21013765,1.1765264,102
1776161578626,2053347,-9.723928,-1.1280714,3.2069802,-1.8729129,0.2284636,1.2315043,102
1776161578667,2052981,-9.319163,-1.3220711,2.6225865,-1.9914207,0.18448131,1.5076154,102
1776161578707,2052488,-9.235336,-1.7699466,2.423797,-2.1612413,0.07696902,1.8765781,102
1776161578749,2052116,-8.876079,-2.1555505,2.1411803,-2.225993,0.007330383,2.2821925,102
1776161578785,2051821,-8.564721,-2.1627357,1.9088597,-2.6438248,-0.10140363,2.6780334,102
1776161578826,2051467,-9.865236,-2.304044,1.8920944,-2.7892108,-0.1600467,2.9443705,102
1776161578865,2051195,-11.352567,-2.9123883,1.877724,-3.4684927,-0.33353242,2.8173106,102
1776161578906,2050841,-12.772835,-2.854907,2.6273766,-4.554611,-0.26267207,2.525317,102
1776161578945,2050521,-12.545304,-2.936339,2.337575,-3.549127,-0.44959682,1.7763962,102
1776161578989,2050212,-13.61829,-4.90747,2.469303,-1.3365731,-0.21502456,0.86620694,102
1776161579026,2049988,-10.756197,-5.810406,1.9519708,0.12583824,0.02321288,0.040317107,102
1776161579068,2049761,-7.285761,-5.3864813,1.8082675,0.99204516,0.13683382,-0.39584067,102
1776161579107,2050459,-6.272652,-4.5769525,1.7196504,1.3573426,0.09285152,-0.7281514,102
1776161579145,2050918,-8.140796,-4.2799654,1.8441932,1.9401081,0.15027285,-1.2131784,102
1776161579186,2050397,-9.331139,-4.1075215,1.4873298,2.515543,0.36163223,-1.5882497,102
1776161579231,2049435,-9.280843,-3.4824116,0.81671417,2.5558603,0.28099802,-2.0305161,102
1776161579265,2048513,-10.456816,-2.9267588,1.5472063,2.8368583,0.19914207,-2.375044,102
1776161579310,2047473,-10.260421,-2.7112036,1.2981205,3.2693508,0.017104227,-2.5485299,102
1776161579345,2046350,-10.746617,-2.5698953,1.2430341,3.3903022,-0.15149458,-2.452013,102
1776161579394,2045748,-10.308322,-1.8944894,1.7100701,2.9162707,-0.28221974,-2.2382102,102
1776161579427,2045278,-10.308322,-1.8944894,1.7100701,2.3322835,-0.55833083,-1.9669861,102
1776161579467,2044887,-9.711953,-1.7675514,2.6345618,0.9089675,-0.75869465,-1.7592919,102
1776161579507,2044521,-9.57304,-1.1041209,3.1063879,0.36774087,-0.88086766,-1.4306464,102
1776161579548,2044454,-10.679556,-1.9543658,3.240511,-0.015882496,-0.86254174,-1.2229522,102
1776161579585,2044785,-11.014863,-1.9304153,3.1566842,-0.6218608,-0.79901177,-0.9944886,102
1776161579625,2045306,-12.178861,-1.3460215,3.786584,-0.86254174,-0.36041048,-0.7806858,102
1776161579665,2046120,-11.699849,-1.5064903,3.7243123,-0.5290093,0.012217305,-0.8197812,102
1776161579707,2046399,-8.492869,-1.7388108,4.1602125,0.10995574,0.15027285,-0.9615019,102
1776161579748,2046162,-6.600775,-1.6142678,3.6309052,0.85154617,0.19547687,-0.6560693,102
1776161579784,2046513,-7.074996,-1.6501937,2.7782652,0.5693264,0.21135938,-0.06841691,102
1776161579825,2047475,-7.453415,-1.3053056,2.6249816,-0.5510005,0.27366763,0.7733554,102
1776161579866,2048554,-7.592328,-0.93167686,2.8884377,-1.2547172,0.21502456,1.346347,102
1776161579905,2049464,-7.556402,-1.3005155,3.240511,-1.7128662,0.15149458,1.7617353,102
1776161579948,2049913,-7.379168,-1.1711825,2.97945,-2.048842,0.103847094,2.144137,102
1776161579986,2050303,-7.9923024,-1.4202683,2.7112036,-2.502104,0.057421334,2.488665,102
1776161580031,2051067,-8.660523,-1.7436008,2.6968334,-2.6254988,0.010995574,2.751337,102
1776161580066,2051883,-9.3598795,-2.2681181,2.6968334,-2.4727826,-0.10629055,2.7782152,102
1776161580106,2052406,-9.539509,-2.6441422,2.7638948,-2.1636846,-0.204029,2.7550023,102
1776161580145,2052495,-10.286766,-2.8022158,2.6058211,-2.0818288,-0.2724459,2.7403414,102
1776161580185,2052680,-11.924985,-3.365054,2.6082163,-1.9511036,-0.40194935,2.379931,102
1776161580225,2052853,-12.511773,-4.0715957,2.7159936,-1.8753563,-0.4129449,1.8301523,102
1776161580266,2052757,-13.014735,-4.3350515,2.5291793,-1.6823229,-0.35430184,1.2144,102
1776161580307,2052558,-13.460216,-4.423669,2.2729082,-0.9578367,-0.19792034,0.50579643,102
1776161580345,2052082,-11.062764,-4.7541866,2.1052544,-0.043982297,0.0061086523,-0.07452556,102
1776161580386,2051494,-8.203068,-4.4571996,1.9639461,1.1582005,0.21624629,-0.39950588,102
1776161580425,2051300,-7.1899586,-4.423669,1.7603663,2.2284365,0.26511553,-0.61941737,102
1776161580466,2051308,-7.453415,-4.7038903,1.7555761,3.1398473,0.2846632,-1.028697,102
1776161580505,2051233,-8.8209915,-4.3206816,1.1759726,3.5503488,0.2003638,-1.6114625,102
1776161580545,2050928,-9.5419035,-3.496782,0.9604175,3.1655037,0.09407325,-2.0977113,102
1776161580585,2050664,-9.7167425,-2.1818962,0.98197305,3.097087,-0.13805555,-2.388483,102
1776161580626,2050128,-9.865236,-2.3351798,1.2047132,3.1581733,-0.3481932,-2.4556782,102
1776161580669,2049734,-10.428075,-2.2082417,0.89335597,2.7207937,-0.51068336,-2.2858577,102
1776161580704,2049553,-10.784938,-1.9328103,0.9963434,2.048842,-0.61453044,-2.090381,102
1776161580746,2049299,-10.243655,-1.7819219,1.3029106,1.3585643,-0.643852,-1.7592919,102
1776161580785,2048553,-10.090372,-1.7244405,1.5759469,0.643852,-0.7501425,-1.3695599,102
1776161580824,2047858,-11.280715,-1.619058,2.0573533,0.6658431,-0.8063421,-1.3536774,102
1776161580865,2047572,-11.263949,-1.8657488,2.2034516,0.04153884,-0.4886922,-1.2144,102
1776161580907,2047276,-12.487823,-0.895751,2.433377,-0.59986967,0.002443461,-1.0189233,102
1776161580945,2047179,-12.485428,-0.8981461,3.3411033,-0.17837265,0.27122417,-1.0934488,102
1776161580985,2047220,-9.367064,-1.276565,4.390138,0.6462954,0.24678956,-1.1191051,102
1776161581025,2047079,-7.625859,-1.2023182,3.8512504,1.0250319,0.20525073,-0.77579886,102
1776161581065,2048097,-7.66897,-1.1831578,3.2021902,0.5693264,0.17104226,-0.2003638,102
1776161581105,2050598,-7.6929207,-0.8741955,2.7950306,-0.3408628,0.052534413,0.54000485,102
1776161581145,2052759,-7.731241,-0.7568377,3.1974,-1.282817,-0.10140363,1.097114,102
1776161581185,2054458,-7.249835,-0.8358746,3.3913996,-1.772731,-0.1966986,1.5100589,0
1776161581224,2055276,-7.118107,-1.1137011,2.905203,-2.0097466,-0.17104226,1.8985692,0
1776161581265,2055705,-7.4773655,-1.4681695,2.4477475,-2.1930063,-0.059864793,2.2479842,0
1776161581305,2056130,-8.490474,-1.7747366,2.3854759,-2.2553146,0.012217305,2.356718,0
1776161581345,2056680,-8.902424,-2.1866863,2.5291793,-1.9645426,0.05375614,2.284636,0
1776161581385,2056849,-8.660523,-2.4094265,2.6082163,-1.4929546,0.002443461,2.289523,0
1776161581426,2056701,-9.340719,-2.603426,2.6752777,-1.269378,0.012217305,2.3542747,0
1776161581465,2056445,-11.400468,-2.945919,2.3974512,-1.704314,0.065973446,2.2638667,0
1776161581505,2056016,-12.324959,-3.0321412,2.5794754,-2.557082,0.009773844,1.8753563,0
1776161581547,2055240,-12.54291,-3.0896225,2.8477218,-2.4813347,-0.058643065,1.4770721,0
1776161581586,2054610,-13.213525,-4.0859656,2.6633024,-1.8411479,-0.06841691,0.77579886,0
1776161581628,2054418,-11.005283,-4.804483,2.2872787,-0.7489208,0.080634214,0.08552113,0
1776161581665,2054160,-7.618674,-4.2703853,1.8034773,0.52290064,0.25900686,-0.20891592,0
1776161581705,2054122,-7.110922,-4.347027,1.8274279,2.144137,0.23457226,-0.42394048,0
1776161581745,2054592,-8.121635,-5.1326056,1.9136499,3.3169982,0.20647246,-0.88697636,0
1776161581786,2054836,-9.259287,-4.5051007,1.4873298,3.4953709,0.19914207,-1.3658947,0
1776161581828,2054562,-9.743089,-2.9291537,1.408293,3.186273,0.037873644,-1.8044959,0
1776161581866,2054272,-9.783805,-2.0525632,1.6693542,2.9565878,-0.14294247,-1.9975294,0
1776161581910,2053988,-9.503583,-1.8106625,1.6573789,2.968805,-0.28710666,-1.9657644,0
1776161581946,2053581,-9.565854,-2.1220198,1.276565,2.6108382,-0.46181414,-1.7531832,0
1776161581988,2053302,-9.702373,-1.8537735,1.4945151,2.1001546,-0.60231316,-1.5515977,0
1776161582027,2053142,-9.618546,-1.8106625,1.6741443,1.2669345,-0.6805039,-1.3048081,0
1776161582066,2052238,-9.244917,-1.3053056,1.7747366,0.625526,-0.8222246,-1.1472049,0
1776161582107,2050905,-9.448497,-1.4514041,2.1028593,0.36285394,-0.8784242,-1.0030408,0
1776161582146,2049959,-10.588543,-1.4753547,2.2753034,-0.06719518,-0.73426,-0.8417723,0
1776161582186,2049545,-11.893849,-1.233454,2.8309565,-0.7684685,-0.38362336,-0.6450737,0
1776161582227,2049397,-11.920195,-0.9101213,3.3147578,-0.84421575,0.002443461,-0.39828414,0
1776161582265,2049312,-11.002888,-1.3532068,3.7674234,-0.20525073,0.087964594,-0.64873886,0
1776161582305,2049136,-8.423412,-1.2166885,3.963818,0.3286455,0.035430185,-0.68294734,0
1776161582346,2049013,-7.628254,-0.41434473,3.1710544,0.24312437,-0.010995574,-0.27122417,0
1776161582386,2049705,-8.224623,-0.08861708,2.6561172,-0.9077458,-0.11362094,0.35918877,0
1776161582425,2051315,-8.576696,-0.12454292,2.811796,-1.7373008,-0.1881465,0.95172805,0
1776161582466,2052463,-8.679684,-0.50535685,3.108783,-1.7886134,-0.16737708,1.2767084,0
1776161582506,2053171,-8.013858,-1.1328616,2.9171784,-1.6639969,-0.13194689,1.455081,0
1776161582547,2053560,-7.9827223,-1.3364414,2.8237712,-1.754405,-0.008552114,1.9511036,0
1776161582587,2054005,-8.056969,-1.4801447,2.821376,-1.8032742,0.039095376,2.3139575,0
1776161582628,2054469,-8.310845,-1.8130575,2.7159936,-1.9572122,-0.012217305,2.4959953,0
1776161582666,2054273,-8.595857,-2.040588,2.8620923,-2.1551325,-0.07941248,2.483778,0
1776161582705,2054096,-9.187435,-2.0741186,2.682463,-2.20278,-0.09407325,2.4764478,0
1776161582746,2053917,-9.752668,-2.4645128,2.5052288,-2.3139575,-0.12095132,2.461787,0
1776161582790,2053885,-11.388493,-3.2237456,2.6297717,-2.2235496,-0.087964594,2.2149973,0
1776161582825,2053776,-11.196888,-3.9278922,2.55792,-2.117259,-0.07574729,1.9645426,0
1776161582865,2053604,-11.405257,-4.48115,2.4812782,-1.4343116,-0.037873644,1.3878858,0
1776161582905,2053300,-11.596862,-5.6499376,2.3208094,-0.3213151,0.10751228,0.6976081,0
1776161582945,2053203,-11.50106,-6.298998,2.636957,0.87964594,0.34208453,-0.50579643,0
1776161582986,2053060,-8.861708,-5.499049,2.2058468,2.470339,0.5448918,-1.2596041,0
1776161583028,2052879,-7.388748,-4.392533,1.8705388,4.4006734,0.41538838,-1.8839084,0
1776161583067,2053019,-8.732375,-4.1506324,2.0357978,4.836831,0.21135938,-2.0427334,0
1776161583106,2053452,-10.737037,-3.9015465,2.2705133,5.0787334,-0.30665436,-2.2638667,0
1776161583149,2053743,-11.642368,-2.0956743,1.9399955,4.517959,-1.0360274,-2.4471262,0
1776161583186,2053477,-11.180122,-1.5759469,1.0346643,3.7336085,-1.2754866,-2.4312437,101
1776161583225,2052568,-11.249578,-0.12693799,1.8657488,1.7287487,-1.5418239,-2.1209242,101
1776161583266,2051642,-11.034024,-0.45266563,2.1268098,-0.028099801,-1.6517797,-1.8460348,101
1776161583305,2050993,-10.056841,-1.4394288,1.9783164,-0.27122417,-1.6285667,-1.7421877,101
1776161583345,2050274,-9.084448,-1.5112804,1.659774,-0.4092797,-1.4367551,-1.6615535,101
1776161583387,2049949,-7.850994,-0.99394834,2.0142422,-0.59131753,-1.065349,-1.4636332,101
1776161583433,2049891,-8.303659,-1.5615766,2.4357722,0.2406809,-0.48380527,-0.84299403,101
1776161583468,2050072,-8.502449,-2.0669334,2.7471294,0.15027285,-0.057421334,-0.31642818,101
1776161583506,2049837,-9.242522,-1.2861452,3.6356952,-0.28344148,0.17837265,-0.002443461,101
1776161583545,2049719,-9.596991,-0.8430598,4.4667797,-1.110553,0.71837753,0.829555,101
1776161583586,2049933,-10.04726,-1.3579968,4.861964,-1.142318,0.7538077,1.0506883,101
1776161583630,2049976,-8.636573,-1.3987129,4.816458,-0.6291912,0.3115413,0.8857546,101
1776161583665,2050810,-8.035414,-1.1041209,3.8033493,-0.4007276,0.1881465,1.0445796,101
1776161583707,2052519,-8.7204,-1.0801704,2.7615,-0.7049385,0.043982297,1.4587462,101
1776161583745,2054604,-9.201806,-1.0753802,2.507624,-1.5980235,-0.05497787,1.9303342,101
1776161583786,2056005,-9.484423,-1.1400467,2.9291537,-2.9040534,-0.22113322,2.252871,101
1776161583828,2056693,-9.1778555,-1.5639716,2.8932278,-3.563788,-0.376293,2.4080307,101
1776161583865,2056554,-9.022177,-2.3663156,2.2465627,-2.9859092,-0.42271876,2.5277603,101
1776161583906,2056008,-9.017386,-2.7638948,1.5879222,-2.4642303,-0.23701571,2.629164,101
1776161583945,2055662,-9.249707,-2.9890301,1.7100701,-1.9352211,-0.10751228,2.6096163,101
1776161583985,2055545,-9.206596,-3.4560661,1.872934,-1.3011429,0.05375614,2.3457224,101
1776161584025,2055063,-8.567116,-3.333918,2.009452,-1.1533136,0.24190263,1.9950858,101
1776161584067,2054766,-9.266473,-3.4704363,2.253748,-1.0030408,0.32375857,1.6920967,101
1776161584105,2054731,-11.046,-4.303916,2.6561172,-1.0433578,0.36041048,1.0396926,101
1776161584145,2054599,-10.713086,-4.385348,2.8836477,-1.0873401,0.44226643,0.44837508,101
1776161584185,2054442,-10.667581,-4.591323,2.8453267,-0.47403142,0.44959682,-0.080634214,101
1776161584225,2054725,-12.020787,-5.985245,3.233326,0.50335294,0.3481932,-1.0128145,101
1776161584265,2054881,-10.01852,-5.3481603,3.0513015,1.5137241,0.44104472,-1.9083431,101
1776161584304,2054484,-7.8581796,-3.4057698,2.2226121,2.9028316,0.42394048,-2.2809708,101
1776161584346,2054432,-9.874817,-3.5949793,2.2058468,5.45747,-0.13805555,-2.6169467,101
1776161584387,2054408,-12.418366,-3.4656463,2.5339694,5.842315,-0.5021312,-2.4178047,101
1776161584428,2053671,-11.805232,-0.3975793,2.732759,4.3285913,-0.9053023,-2.515543,101
1776161584466,2052455,-11.390887,0.37362877,2.3711057,1.91323,-1.3695599,-2.1539109,101
1776161584505,2049737,-10.772963,0.5628382,2.6656976,0.5546656,-1.518611,-1.781283,101
1776161584545,2048619,-10.396939,-0.61073935,2.3711057,-0.7440339,-1.7104226,-1.3536774,101
1776161584586,2049084,-9.913137,-0.7065416,2.2321923,-1.4978416,-1.8154916,-1.2156218,101
1776161584625,2050197,-9.218572,-1.1711825,1.7100701,-1.1899655,-1.6676621,-1.1203269,101
1776161584665,2051006,-8.600647,-1.2861452,1.5639716,-0.5876524,-1.3133603,-0.9101892,101
1776161584705,2051575,-8.72519,-1.535231,1.8130575,-0.22602014,-0.82344633,-0.49113566,101
1776161584747,2051860,-8.416227,-1.2286638,2.5866606,-0.9822713,-0.46181414,-0.02076942,101
1776161584785,2051574,-7.278576,-0.33530787,3.6309052,-1.7702875,-0.21868975,0.8686504,101
1776161584825,2050974,-8.751535,-0.99394834,3.3506837,-1.6835446,0.042760566,2.3359487,101
1776161584864,2051035,-9.81015,-1.9399955,2.9243636,-2.2724187,0.032986723,2.9810224,101
1776161584906,2051818,-9.812545,-1.2669847,2.8788576,-3.0653217,-0.38362336,3.032335,101
1776161584945,2053235,-10.370593,-0.8694054,2.1411803,-3.1655037,-0.7440339,3.1740558,101
1776161584986,2054380,-11.52501,-1.3723671,1.1687875,-3.3524284,-1.0054842,3.3255503,101
1776161585026,2054588,-13.132093,-2.3806858,0.67061573,-3.6651914,-1.287704,3.2937853,101
1776161585065,2054650,-13.060242,-2.2896738,0.12693799,-4.3408084,-1.4501941,3.0775392,101
1776161585105,2054433,-12.495008,-2.217822,-0.37841886,-4.3689084,-1.568702,2.7855456,101
1776161585147,2054099,-11.9178,-2.692043,-0.55804807,-3.9364157,-1.6126842,2.565634,101
1776161585186,2053383,-11.7669115,-2.7615,-0.8238993,-3.5967746,-1.5357152,2.4275784,100
1776161585225,2052533,-11.335801,-2.646537,-1.238244,-3.450167,-1.3329079,2.3445008,100
1776161585271,2050271,-10.763383,-2.6728828,-1.3364414,-3.4623842,-1.1142182,2.307849,100
1776161585305,2050271,-10.193359,-2.6201916,-1.149627,-3.4953709,-0.84788096,2.2382102,100
1776161585347,2049264,-9.630521,-2.5698953,-1.0442445,-3.336546,-0.5546656,2.189341,100
1776161585385,2048504,-9.194621,-2.6609075,-0.90293616,-3.1386256,-0.24190263,2.1856759,100
1776161585428,2047853,-9.297608,-2.6537223,-0.6658256,-3.0714304,0.07941248,2.207667,100
1776161585466,2046988,-9.56825,-2.5938458,-0.45745572,-3.055548,0.3555236,2.1966715,100
1776161585505,2046057,-9.958644,-2.7231789,0.110172585,-2.9223793,0.5412266,2.144137,100
1776161585545,2045342,-10.325088,-2.7638948,0.5197272,-2.9724703,0.59864795,2.1502457,100
1776161585586,2045009,-12.008812,-2.8046107,1.3053056,-3.1093042,0.5412266,2.1368067,100
1776161585625,2044920,-11.108271,-2.938734,1.0993308,-3.1398473,0.47525316,2.0427334,100
1776161585667,2044935,-11.8579235,-3.2979925,1.3077006,-3.0017917,0.41783184,1.8704693,100
1776161585705,2045524,-10.679556,-3.7626333,1.6118728,-2.6829202,0.4373795,1.4538593,100
1776161585745,2046429,-10.131087,-4.1602125,2.2848835,-2.0244074,0.43982297,0.9053023,100
1776161585786,2047158,-9.551484,-4.3805575,2.5243893,-0.91507614,0.4642576,0.2919936,100
1776161585825,2047881,-8.7204,-4.239249,2.636957,-0.2968805,0.45570546,-0.2125811,100
1776161585868,2048334,-9.467657,-3.6883864,2.6656976,0.019547688,0.45081854,-0.59986967,100
1776161585907,2048887,-8.979066,-3.2285357,2.2800934,0.5717699,0.58032197,-0.7965683,100
1776161585945,2049238,-8.533586,-3.2812269,2.0645385,1.4538593,0.61575216,-0.8735373,100
1776161585987,2049466,-9.173065,-3.3890045,2.474093,2.053729,0.53878313,-0.9773844,100
1776161586026,2049647,-9.647286,-3.0057955,2.9483142,2.5448647,0.39950588,-1.0592403,100
1776161586065,2049056,-9.556274,-2.5818706,2.9770548,2.7232373,0.25411993,-1.1594223,100
1776161586105,2048378,-9.58262,-2.4860682,2.814191,3.2339206,0.05131268,-1.1630874,100
1776161586146,2048120,-9.247312,-1.8178476,2.6752777,3.2351422,-0.21135938,-1.0482447,100
1776161586187,2048219,-9.070078,-1.8106625,3.0872273,2.3457224,-0.48747048,-0.86009824,100
1776161586225,2048380,-9.422151,-2.2369826,3.2668567,1.7519615,-0.766025,-0.7305948,100
1776161586266,2048388,-10.634049,-2.641747,3.103993,1.1716396,-1.0726794,-0.64873886,100
1776161586307,2047653,-11.30706,-2.7399442,3.3171527,0.5839872,-1.251052,-0.784351,100
1776161586345,2047012,-13.359623,-2.4812782,3.5566585,-0.6291912,-1.3707817,-0.9663888,100
1776161586386,2046558,-13.912882,-2.220217,3.240511,-0.79168135,-1.1362094,-1.2950343,100
1776161586425,2046041,-11.601652,-2.1268098,3.6021645,-0.0012217305,-1.0189233,-1.9779817,100
1776161586467,2045585,-8.385092,-1.8801191,3.240511,1.0690142,-0.9761627,-2.5179865,100
1776161586505,2045413,-8.579091,-1.2047132,2.4453523,1.4672983,-0.9089675,-2.3530529,100
1776161586545,2045624,-9.1706705,-0.77599823,2.4190068,1.0922271,-0.81000733,-1.767844,100
1776161586584,2045936,-8.377907,-0.33770293,2.730364,0.22724187,-0.6401868,-1.1887437,100
1776161586626,2045836,-7.7456117,-0.22753033,2.8333514,-0.40194935,-0.28588495,-0.57543504,100
1776161586667,2045602,-6.8474655,-0.46224585,2.8094008,-0.41416663,0.1282817,-0.1282817,100
1776161586706,2045382,-6.430726,-0.52691233,2.8740673,-0.47891834,0.5338962,0.29443705,100
1776161586748,2045487,-6.5792193,-0.5676283,3.2692516,-0.66339964,0.8356637,0.829555,100
1776161586786,2046076,-6.8857865,-0.7448625,3.6428804,-0.8894198,1.0042624,1.4147639,100
1776161586826,2046752,-7.501316,-0.82868946,3.8584356,-1.0934488,1.0262536,1.9144517,100
1776161586866,2047957,-8.30845,-0.9963434,3.707547,-1.4404203,0.9443977,2.3457224,100
1776161586908,2049670,-9.043732,-0.9125164,3.458461,-2.0744984,0.8051204,2.7159069,100
1776161586945,2051462,-9.865236,-1.1735775,3.2093754,-2.547308,0.59131753,2.9859092,100
1776161586987,2052927,-11.005283,-1.8537735,3.326733,-2.9455922,0.28955013,3.0885346,100
1776161587025,2053771,-12.56686,-2.3064392,3.027351,-3.2253685,0.073303826,2.9113839,100
1776161587069,2053663,-13.227896,-3.1423137,2.5195992,-3.3072245,-0.13316862,2.637716,100
1776161587105,2053364,-14.250585,-2.981845,2.3974512,-3.2803464,-0.26511553,2.0781636,100
1776161587147,2053228,-14.047005,-3.9686081,1.6741443,-2.620612,-0.3555236,1.282817,100
1776161587185,2052932,-10.658,-4.0236945,1.8058723,-2.0842721,-0.28955013,0.51068336,100
1776161587226,2052133,-7.8988953,-3.3602638,1.1687875,-1.2351695,-0.18203785,0.21502456,100
1776161587265,2051651,-7.8653646,-3.9590278,1.3436265,-0.23457226,-0.10751228,0.08552113,100
1776161587305,2051201,-7.915661,-4.004534,1.537626,0.7635816,0.062308256,-0.19181168,100
1776161587344,2050586,-8.243783,-3.9901636,1.8058723,1.6920967,0.14782938,-0.64996064,100
1776161587385,2049834,-9.007807,-2.895623,2.3567352,1.9425515,0.20280726,-1.1618657,100
1776161587426,2049202,-8.674893,-2.2393775,2.3663156,1.8936822,0.27000242,-1.4440855,100
1776161587467,2048381,-8.488079,-2.2274022,2.4214017,1.9950858,0.23090707,-1.4587462,100
1776161587507,2047692,-8.880868,-2.725574,2.2274022,2.4776695,0.112399206,-1.3695599,100
1776161587545,2047445,-9.228151,-2.77587,1.8130575,2.719572,0.0036651916,-1.2999213,100
1776161587586,2047241,-9.565854,-2.3639205,1.9064647,2.4459045,-0.14172074,-1.2461652,100
1776161587632,2046976,-9.431731,-1.9352055,2.1651309,2.2003367,-0.25289822,-1.2950343,100
1776161587666,2046775,-9.831706,-1.9447856,2.0741186,2.0011945,-0.3555236,-1.2180653,100
1776161587705,2046291,-11.077135,-2.0693285,2.4357722,1.59558,-0.39828414,-1.1691961,100
1776161587746,2045961,-11.630393,-1.8274279,2.7806602,1.2400564,-0.39461896,-1.0384709,100
1776161587785,2045361,-12.729724,-1.6238481,3.2620666,0.7635816,-0.19914207,-0.97494096,100
1776161587826,2044097,-11.49148,-1.5184656,3.8296947,0.81489426,-0.19303341,-1.1533136,100
1776161587865,2042729,-8.169537,-1.6142678,4.081176,1.3548992,-0.33108896,-1.5870279,100
1776161587913,2041802,-7.786328,-1.3053056,3.1806345,1.4758505,-0.43127087,-1.6566665,100
1776161587946,2041802,-8.708425,-1.238244,2.5195992,1.3206906,-0.5119051,-1.5161675,100
1776161587987,2042366,-8.967091,-0.9891582,2.646537,0.69027776,-0.6047566,-1.2461652,100
1776161588028,2042661,-8.933559,-0.62031955,2.9531043,-0.3811799,-0.5925393,-0.956615,100
1776161588067,2042583,-7.9875126,-0.6059492,2.9986103,-0.79168135,-0.39584067,-0.73914695,100
1776161588105,2042166,-7.036675,-0.9197016,2.76629,-0.47891834,-0.04642576,-0.43493605,100
1776161588145,2041898,-6.7133427,-1.2885402,2.7638948,-0.17470746,0.344528,-0.07574729,100
1776161588186,2041965,-6.739688,-1.1328616,3.2021902,-0.35063666,0.6267477,0.3286455,100
1776161588227,2042150,-7.0510454,-0.8071339,3.879991,-0.7098254,0.7305948,0.6939429,99
1776161588268,2042308,-7.1013417,-0.73528224,4.009324,-0.95905846,0.7110472,1.0555751,99
1776161588305,2042627,-7.5300565,-0.8694054,3.8249047,-1.3695599,0.65484756,1.5063937,99
1776161588345,2043616,-8.9958315,-1.1184913,3.4225352,-1.8093829,0.5204572,1.9865338,99
1776161588385,2044989,-10.679556,-1.6142678,3.3099678,-2.117259,0.44837508,2.3176227,99
1776161588425,2045941,-13.203945,-2.0190325,2.4597228,-2.605951,0.3494149,2.5912905,99
1776161588465,2046188,-15.433743,-2.941129,2.8094008,-2.6083946,0.032986723,2.6853635,99
1776161588507,2045667,-13.577574,-2.9483142,2.2513528,-2.9260445,-0.19792034,1.8985692,99
1776161588545,2044491,-10.200544,-2.3758957,0.7855784,-2.6145031,-0.26633725,1.4062119,99
1776161588589,2044002,-9.893977,-2.2705133,0.3448881,-2.1685717,-0.34697145,1.2986995,99
1776161588625,2044725,-10.102347,-3.369844,0.54607284,-1.7373008,-0.44593164,1.1435398,99
1776161588665,2044863,-9.213781,-4.03567,0.59876406,-0.9443977,-0.39828414,0.8588765,99
1776161588705,2044156,-8.686869,-3.6045597,0.7328872,-0.3408628,-0.204029,0.49846604,99
1776161588745,2043626,-8.30845,-3.204585,1.149627,0.25411993,0.032986723,0.17348573,99
1776161588788,2043194,-8.028229,-3.2692516,1.5472063,0.8368854,0.2003638,-0.13927728,99
1776161588826,2042621,-8.2749195,-3.4153502,1.916045,1.2095132,0.25778514,-0.40194935,99
1776161588865,2042237,-8.413833,-3.242906,2.1316,1.4501941,0.21746802,-0.64751714,99
1776161588905,2041910,-8.303659,-2.9914253,1.8370081,1.4563028,0.16126843,-0.81245077,99
1776161588947,2041709,-8.641363,-2.852512,1.9471806,1.459968,0.007330383,-0.9896017,99
1776161588986,2041360,-9.232942,-2.6513271,1.8968844,1.4709635,-0.08552113,-1.0848967,99
1776161589025,2040679,-10.341852,-2.7231789,1.9855015,1.4477507,-0.13072516,-1.1472049,99
1776161589066,2039868,-11.024444,-2.7231789,2.1771061,1.5931365,-0.18325958,-1.2388347,99
1776161589106,2039177,-12.866241,-2.6441422,2.5651052,1.5027285,-0.23090707,-1.3011429,99
1776161589147,2038528,-13.742832,-2.1483655,2.598636,1.0115929,-0.17592919,-1.4062119,99
1776161589185,2037813,-11.93696,-1.8992796,3.233326,1.3976597,-0.32375857,-1.9156734,99
1776161589225,2037132,-9.120374,-1.6430086,2.898018,1.8057177,-0.5375614,-2.361605,99
1776161589265,2036639,-8.852128,-1.0083187,2.3902662,1.8106046,-0.68416905,-2.234545,99
1776161589305,2036605,-9.596991,-0.9867631,2.2896738,1.0592403,-0.7134906,-1.7373008,99
1776161589345,2036913,-9.295213,-0.9987384,2.7543147,0.37873647,-0.675617,-1.3011429,99
1776161589386,2036730,-8.828177,-1.025084,2.807006,-0.052534413,-0.5448918,-0.88208944,99
1776161589426,2036077,-7.894105,-1.1592072,2.3711057,-0.042760566,-0.26511553,-0.50579643,99
1776161589464,2035832,-7.113317,-1.2645897,2.0693285,0.16615535,0.0720821,-0.12705997,99
1776161589507,2036050,-7.0055394,-1.449009,2.2872787,0.021991149,0.3933972,0.25900686,99
1776161589547,2036493,-7.03907,-1.2693797,2.7638948,-0.29077184,0.61819565,0.59131753,99
1776161589586,2036439,-7.201934,-1.1807626,2.7830553,-0.47525316,0.75502944,0.8491027,99
1776161589627,2035780,-7.360008,-1.235849,3.0177708,-0.5864306,0.8173377,1.1252137,99
1776161589666,2035356,-7.7072906,-1.3867376,3.1878197,-0.74281216,0.8185594,1.5589281,99
1776161589705,2035594,-8.909609,-1.7220454,3.5135474,-1.0751228,0.6560693,1.9999728,99
1776161589745,2036265,-10.155038,-1.8609587,3.9757934,-2.302962,0.32253686,2.1905627,99
1776161589786,2037100,-12.348909,-1.4442189,3.7195222,-3.5967746,0.20525073,2.3774874,99
1776161589826,2037934,-14.145202,-1.6933048,3.621325,-4.106236,-0.3323107,2.0207422,99
1776161589865,2038600,-13.766783,-4.038065,2.8357465,-2.9480357,-0.5497787,1.1313224,99
1776161589905,2038660,-10.705901,-4.275175,1.4274535,-1.2351695,-0.51923543,0.49846604,99
1776161589950,2038786,-9.448497,-3.3027825,1.0634049,-0.6291912,-0.40194935,0.17592919,99
1776161589986,2039445,-9.505978,-3.3818192,1.1903429,-0.23579398,-0.41905355,-0.05009095,99
1776161590026,2039529,-8.610227,-3.3147578,1.3867376,-0.05009095,-0.3213151,-0.20647246,99
1776161590066,2039097,-8.054574,-2.433377,1.1137011,-0.002443461,-0.17104226,-0.25411993,99
1776161590106,2038777,-8.061759,-2.4046364,1.3843424,0.17837265,-0.035430185,-0.28588495,99
1776161590146,2037873,-8.033018,-2.5722904,1.4154782,0.54000485,0.11484267,-0.20891592,99
1776161590184,2036745,-8.116845,-2.5339694,1.5687618,0.7012733,0.23579398,-0.10629055,99
1776161590226,2035972,-7.977932,-2.5028336,1.877724,0.7110472,0.30543262,-0.064751714,99
1776161590265,2035433,-7.7432165,-2.301649,2.086094,0.6035349,0.28955013,-0.010995574,99
1776161590313,2035184,-7.999488,-2.3591304,2.3232045,0.43249258,0.267559,0.12461651,99
1776161590344,2035160,-8.73956,-2.6297717,2.301649,0.48624873,0.2968805,0.29443705,99
1776161590386,2035342,-9.82931,-3.0560918,2.4812782,0.7049385,0.35185838,0.36041048,99
1776161590427,2035272,-10.67716,-3.3075726,2.7974257,0.86498517,0.2602286,0.2968805,99
1776161590466,2035138,-12.56207,-3.6141398,3.8464603,0.55955255,0.12461651,-0.13439035,99
1776161590505,2035108,-13.239871,-3.365054,4.5027056,1.0225884,-0.017104227,-0.8784242,99
1776161590546,2035140,-11.048394,-3.2572765,4.6799397,2.1587977,-0.22602014,-1.5723672,99
1776161590584,2035328,-8.231808,-2.438167,3.5279179,2.2052236,-0.36896262,-1.9291124,99
1776161590625,2035853,-7.798303,-1.3388364,2.263328,2.1038198,-0.7464773,-1.8741345,99
1776161590665,2036725,-9.3503,-1.619058,2.129205,2.112372,-0.8503244,-1.4477507,99
1776161590706,2037054,-10.123902,-1.8609587,2.3735006,1.0091494,-0.90041536,-1.142318,99
1776161590747,2035714,-10.1574335,-1.1831578,2.898018,-0.21380283,-0.87598073,-1.0323622,99
1776161590785,2034107,-9.065288,-1.3172809,2.2489579,-0.2443461,-0.689056,-1.1496484,99
1776161590829,2032517,-8.013858,-1.616663,1.403503,0.27366763,-0.34574974,-1.174083,99
1776161590866,2032278,-7.8605742,-1.6956998,1.4130832,0.5412266,-0.035430185,-1.0555751,99
1776161590906,2032478,-7.5204763,-1.6717492,1.9950818,0.41416663,0.26145032,-0.8344419,99
1776161590947,2032459,-6.9696136,-1.1017258,2.5651052,0.010995574,0.54611355,-0.5363397,99
1776161590986,2031998,-6.492997,-0.8813807,3.0728571,-0.172264,0.7611381,-0.07941248,99
1776161591026,2032093,-6.742083,-1.1807626,3.4249303,-0.29932398,0.9089675,0.5925393,99
1776161591076,2032603,-8.169537,-1.4993051,3.6955717,-0.72082096,0.9431759,1.3011429,99
1776161591105,2033966,-9.628126,-1.5040953,4.2895455,-1.5723672,0.7733554,1.7996091,99
1776161591145,2035867,-10.715482,-1.3675771,4.591323,-2.6108382,0.39706242,2.3237314,99
1776161591186,2037783,-13.544043,-1.7651564,4.569767,-3.4636059,0.004886922,2.438574,99
1776161591225,2039228,-12.976415,-3.0153759,3.4848068,-3.5760052,-0.22968534,2.2504275,99
1776161591266,2040193,-10.456816,-3.6692262,2.0166373,-1.8289305,-0.7635816,1.1362094,99
1776161591309,2041231,-9.328744,-3.1902149,0.809529,-0.33964106,-0.6719518,0.9468411,99
1776161591346,2041246,-10.001755,-3.578214,0.5748135,0.019547688,-0.6096435,0.95417154,99
1776161591386,2040826,-10.550222,-3.274042,1.0059236,-0.22479841,-0.5839872,0.9077458,99
1776161591425,2040203,-9.812545,-2.98424,0.94365215,-0.46792278,-0.37018433,0.6658431,99
1776161591465,2039470,-8.868893,-2.5890558,0.766418,-0.47036624,-0.15393804,0.4129449,99
1776161591505,2038952,-7.87734,-2.3136244,0.7185168,-0.2443461,0.05497787,0.26267207,99
1776161591550,2038679,-7.6593895,-2.8405366,0.9125164,0.22724187,0.2125811,0.22357668,99
1776161591590,2038614,-8.052179,-3.024956,1.3172809,0.52412236,0.2932153,0.20280726,99
1776161591630,2038434,-8.382697,-3.0393262,1.662169,0.657291,0.28344148,0.047647487,99
1776161591665,2038256,-8.502449,-2.8285613,1.8968844,0.68539083,0.24312437,-0.1966986,99
1776161591706,2038174,-8.425808,-2.7112036,2.0190325,0.79168135,0.1600467,-0.48258355,99
1776161591745,2038219,-9.053312,-2.7231789,2.1076493,0.8784242,0.10262536,-0.64873886,99
1776161591786,2038405,-10.631655,-2.6633024,2.3543403,0.7684685,0.1160644,-0.70249504,99
1776161591827,2038547,-11.393282,-2.6896482,2.6297717,0.77213365,0.19547687,-0.68661255,99
1776161591866,2038503,-11.467529,-2.8740673,3.1327336,0.8784242,0.2406809,-0.6780604,99
1776161591905,2037983,-11.398072,-3.3315232,3.2021902,1.3939945,0.3286455,-0.6792821,99
1776161591946,2037398,-9.455682,-3.326733,3.1015978,2.0891593,0.28221974,-1.0177015,99
1776161591987,2036972,-7.4318595,-2.476488,2.6944382,2.6731462,0.10629055,-1.4880677,99
1776161592026,2037242,-8.610227,-2.213032,2.1459703,3.2192597,-0.15271631,-1.6175711,99
1776161592066,2037697,-10.813679,-2.2417727,2.0765138,3.097087,-0.44715336,-1.5027285,99
1776161592104,2037697,-10.813679,-2.2417727,2.0765138,2.2944098,-0.6291912,-1.4025466,99
1776161592147,2037927,-11.462739,-1.7867119,1.8896993,0.59620446,-0.79412484,-1.5247196,99
1776161592186,2037205,-9.618546,-1.1855528,1.7076751,0.29932398,-0.752586,-1.5992452,99
1776161592229,2036715,-8.694054,-1.5783421,1.0155039,0.28344148,-0.33108896,-1.5564847,100
1776161592267,2036627,-8.116845,-1.9064647,0.9508373,0.56688297,0.058643065,-1.251052,100
1776161592305,2036594,-7.7432165,-2.1004643,1.2166885,0.70249504,0.2602286,-1.0531317,100
1776161592345,2036594,-7.7432165,-2.1004643,1.2166885,0.71593404,0.63041294,-0.7134906,100
1776161592385,2036079,-7.0989466,-1.91844,1.8417982,0.5180137,0.91629785,-0.42638394,100
1776161592426,2034443,-7.206724,-1.2047132,3.7386827,0.25411993,0.93828905,-0.18203785,100
1776161592468,2034443,-7.206724,-1.2047132,3.7386827,-0.1441642,0.8918633,0.5717699,100
1776161592508,2034061,-8.167142,-1.4178733,4.1242867,-0.44959682,0.8381071,0.84665924,100
1776161592550,2034153,-9.307188,-1.3987129,4.90268,-1.3414601,0.47525316,1.4208726,100
1776161592587,2035357,-9.652077,-1.532836,5.534975,-1.2986995,0.31887165,1.5625933,100
1776161592625,2039164,-11.426813,-2.981845,4.9625564,-0.93828905,-0.009773844,1.881465,100
1776161592666,2039164,-11.426813,-2.981845,4.9625564,-0.81122905,-0.29077184,1.6676621,100
1776161592706,2041864,-9.053312,-3.412955,2.9770548,-0.61575216,-0.34208453,1.1349876,100
1776161592749,2042897,-7.9108706,-3.2261407,2.2800934,0.26145032,-0.23945917,0.7501425,100
1776161592785,2043179,-8.634177,-3.5710287,2.2058468,0.61575216,-0.21624629,0.69027776,100
1776161592828,2043179,-8.634177,-3.5710287,2.2058468,1.3219124,-0.1441642,0.6047566,100
1776161592865,2043085,-9.668841,-4.222484,2.040588,1.7837266,-0.06841691,0.32986724,100
1776161592906,2042847,-9.917928,-4.1434474,1.6980948,1.767844,-0.07086037,-0.21868975,100
1776161592944,2041986,-8.840153,-2.438167,1.619058,1.2608259,-0.05131268,-0.829555,100
1776161592987,2041835,-8.588672,-2.1435752,1.6262431,0.9810496,-0.04520403,-1.2217305,100
1776161593026,2041769,-8.969485,-2.4357722,1.7148602,0.9309586,-0.058643065,-1.4074335,100
1776161593065,2041468,-9.235336,-2.6489322,1.5998975,1.0128145,-0.05131268,-1.4330899,100
1776161593107,2040571,-9.551484,-2.476488,1.5472063,1.0311406,-0.037873644,-1.3341297,100
1776161593145,2039502,-9.925113,-2.213032,1.875329,0.85154617,-0.058643065,-1.2632693,100
1776161593185,2039502,-9.925113,-2.213032,1.875329,0.6805039,-0.064751714,-1.314582,100
1776161593226,2038594,-10.485556,-1.8849093,2.124415,0.6951646,-0.06352998,-1.4404203,100
1776161593267,2037584,-10.713086,-1.7771317,2.6800678,0.7892379,-0.02321288,-1.4453071,100
1776161593306,2037070,-11.376517,-1.5998975,3.0417213,0.6951646,0.056199603,-1.4526376,100
1776161593345,2036822,-10.689136,-1.2214787,3.5566585,0.5045747,0.10873401,-1.4538593,100
1776161593385,2036826,-8.780276,-0.77360314,3.9231021,0.5839872,0.095294975,-1.2571607,100
1776161593430,2036883,-7.45102,-0.7448625,4.016509,0.73914695,0.0720821,-0.25534168,100
1776161593465,2037975,-7.9060802,-1.0490346,3.5063622,0.52534413,0.118507855,0.15149458,100
1776161593504,2038960,-8.198277,-1.0011334,3.8272998,-0.19425514,0.21868975,0.8063421,100
1776161593546,2038960,-8.198277,-1.0011334,3.8272998,-0.50823987,0.31031954,1.2840388,100
1776161593591,2040145,-8.284499,-1.1424417,3.9135218,-0.47525316,0.376293,1.6468927,100
1776161593627,2041624,-8.741955,-1.5208607,3.8057442,-0.5131268,0.37751472,1.704314,100
1776161593666,2041624,-8.741955,-1.5208607,3.8057442,-0.68294734,0.34697145,1.7055358,100
1776161593704,2041810,-9.158695,-1.8849093,3.6740162,-0.8136725,0.32742378,1.53205,100
1776161593749,2041577,-8.95751,-2.083699,3.5303128,-0.77091193,0.3494149,1.210735,100
1776161593785,2041577,-8.95751,-2.083699,3.5303128,-0.4972443,0.46792278,0.96761054,100
1776161593826,2041289,-9.019782,-2.3567352,3.283622,0.14660765,0.57787853,0.8197812,100
1776161593867,2040686,-9.381435,-3.4656463,3.0944126,0.8417723,0.6059783,0.625526,100
1776161593904,2040686,-9.381435,-3.4656463,3.0944126,1.2950343,0.5546656,0.36285394,100
1776161593945,2040475,-8.718004,-3.2165604,2.8764625,1.4746287,0.4972443,0.06963864,100
1776161593986,2040216,-9.570644,-2.4214017,2.2824886,1.1239921,0.44593164,-0.2932153,100
1776161594025,2040216,-9.570644,-2.4214017,2.2824886,1.2815952,0.42271876,-0.6267477,100
1776161594068,2039777,-9.750274,-2.7806602,1.1592072,1.7996091,0.453262,-0.95539325,100
1776161594111,2039441,-9.81015,-2.5100188,0.4981717,2.1502457,0.44837508,-1.2131784,100
1776161594144,2039441,-9.81015,-2.5100188,0.4981717,2.4446826,0.43127087,-1.4404203,100
1776161594186,2039172,-10.298741,-2.2010567,-0.023950562,2.4495697,0.37018433,-1.5210545,100
1776161594227,2038888,-10.617284,-2.0477731,-0.14130831,2.0744984,0.32986724,-1.5601498,100
1776161594266,2038509,-10.557407,-1.7244405,-0.32333258,1.6077974,0.15149458,-1.4611896,100
1776161594305,2037859,-10.701111,-1.5519965,0.17483911,1.2253957,0.06352998,-1.3231341,100
1776161594351,2035671,-10.138273,-1.6022925,0.3712337,1.0885619,0.12705997,-0.6218608,100
1776161594385,2035671,-9.460472,-1.27896,0.6442701,1.1337659,0.1881465,-0.39706242,100
1776161594426,2034865,-9.108398,-0.65864044,0.44548047,0.96761054,0.18448131,-0.05497787,100
1776161594465,2034405,-9.264077,-1.3939227,0.9987384,0.816116,0.1160644,0.3555236,100
1776161594509,2034179,-9.096423,-1.4561942,1.5136755,0.82344633,0.030543262,0.5522222,100
1776161594546,2034333,-9.173065,-2.308834,1.7268355,0.88697636,-0.037873644,0.52412236,100
1776161594592,2034672,-9.096423,-3.532708,1.3915277,1.0567969,-0.010995574,0.4288274,100
1776161594625,2034672,-9.096423,-3.532708,1.3915277,1.4428637,-0.02687807,0.36041048,100
1776161594665,2034703,-9.108398,-4.018904,1.3532068,1.6285667,-0.058643065,0.16249016,100
1776161594706,2034501,-8.868893,-3.9231021,1.235849,1.5796975,-0.05131268,-0.03176499,100
1776161594748,2034363,-9.115583,-3.7386827,1.0729852,1.4953982,0.04520403,-0.20525073,100
1776161594786,2034128,-9.125164,-3.5734239,0.91730654,1.5125023,0.14905111,-0.38728857,100
1776161594826,2033994,-9.726323,-3.587794,1.1256764,1.5344934,0.23701571,-0.70371675,100
1776161594867,2033774,-10.090372,-3.4608562,1.7244405,1.6041322,0.35918877,-1.0726794,100
1776161594905,2032138,-7.8246484,-3.0968077,2.3806858,2.225993,0.44226643,-1.2412782,100
1776161594947,2032138,-7.8246484,-3.0968077,2.3806858,3.0934217,0.3555236,-1.2412782,100
1776161594987,2030844,-10.281976,-3.4440908,2.8285613,3.1435125,0.15393804,-1.351234,100
1776161595025,2030052,-11.275925,-3.024956,3.3985848,2.6535985,-0.057421334,-1.6224581,100
1776161595065,2029553,-9.941878,-1.8370081,3.2476962,2.3176227,-0.24556783,-1.6578883,100
1776161595104,2029117,-9.618546,-1.4130832,3.0321412,1.9755383,-0.38728857,-1.536937,100
1776161595146,2029187,-9.807755,-1.6334283,2.9626844,1.4172074,-0.47891834,-1.4782939,100
1776161595191,2029131,-9.546694,-1.3364414,3.2668567,1.0201449,-0.47403142,-1.4367551,100
1776161595224,2028804,-9.410175,-1.2669847,3.0057955,0.84421575,-0.40561453,-1.4135422,100
1776161595266,2027646,-8.856917,-1.1999232,2.8764625,0.82344633,-0.24923302,-1.3243558,100
1776161595306,2027646,-8.856917,-1.1999232,2.8764625,0.86498517,-0.09285152,-1.1386528,100
1776161595347,2027345,-8.234203,-1.0370593,2.9626844,0.6230826,0.13805555,-0.7122689,100
1776161595386,2027166,-7.6234636,-0.49338156,2.9483142,0.095294975,0.3885103,-0.12950343,100
1776161595425,2027040,-7.1372676,-0.22513528,3.1255484,-0.3555236,0.56688297,0.37018433,100
1776161595466,2027012,-7.245045,-0.14130831,3.1758444,-0.6780604,0.7012733,0.8527679,100
1776161595505,2026705,-7.764772,-0.18920943,3.1614742,-1.0641272,0.75625116,1.128879,100
1776161595546,2026197,-8.502449,-0.36404854,3.2716467,-1.3426818,0.7293731,1.378112,100
1776161595585,2025905,-9.053312,-0.59397393,3.4632514,-1.6358972,0.6597345,1.5467108,100
1776161595626,2026009,-9.596991,-0.8694054,3.4345105,-1.9083431,0.535118,1.7153096,100
1776161595666,2026213,-9.874817,-1.1975281,3.2860172,-2.5912905,0.35430184,1.9376645,100
1776161595705,2026542,-10.133483,-1.3436265,3.0920177,-3.0030136,0.14049901,2.1930063,100
1776161595745,2026901,-11.273529,-2.2896738,2.430982,-3.0335567,-0.14782938,2.1832323,100
1776161595789,2027049,-11.295085,-2.9339437,1.8681438,-3.2717943,-0.3200934,2.2418754,100
1776161595825,2026930,-12.425551,-2.9554994,1.6549839,-2.324953,-0.44348818,2.1209242,100
1776161595868,2026672,-12.909353,-4.6511993,1.276565,-1.3133603,-0.25289822,1.5198327,100
1776161595905,2026368,-8.368326,-3.83209,1.6262431,-0.49113566,-0.06352998,0.84299403,100
1776161595945,2026368,-8.368326,-3.83209,1.6262431,0.20769419,0.04642576,0.26633725,100
1776161595991,2026831,-8.854523,-3.6428804,2.2417727,0.50579643,0.06841691,-0.21502456,100
1776161596025,2026831,-8.854523,-3.6428804,2.2417727,1.3377949,0.13439035,-0.74036866,100
1776161596066,2026294,-8.552746,-3.7626333,1.8298229,1.858252,0.10995574,-1.2718215,100
1776161596110,2025504,-9.14672,-3.0872273,2.1986616,2.0011945,0.16371189,-1.5125023,100
1776161596147,2024742,-8.75393,-2.4166117,1.9902917,2.1966715,0.16249016,-1.4391985,100
1776161596185,2024008,-8.495264,-2.5842657,1.8346131,2.194228,0.0061086523,-1.2461652,100
1776161596225,2023441,-9.407781,-2.890833,1.9974768,2.2186625,-0.22724187,-1.0800097,100
1776161596265,2022903,-10.171803,-3.1015978,1.8465884,2.3640485,-0.45081854,-1.1044444,100
1776161596306,2022263,-10.406519,-2.9243636,1.8992796,1.4123205,-0.56321776,-1.282817,100
1776161596345,2021957,-9.896372,-2.054958,2.601031,1.2266175,-0.68539083,-1.5906931,100
1776161596387,2021829,-9.81015,-2.8357465,2.8692772,1.3585643,-0.8063421,-1.772731,100
1776161596426,2021754,-10.315507,-2.7591047,2.7950306,1.3536774,-0.9419542,-1.6823229,100
1776161596465,2021267,-10.2484455,-2.7854505,3.5351028,0.8576548,-1.0030408,-1.536937,100
1776161596506,2020778,-10.368198,-2.5698953,4.4907303,0.034208454,-1.0079277,-1.287704,100
1776161596545,2019912,-10.902296,-2.3711057,5.245173,-0.23457226,-0.9627236,-1.210735,100
1776161596587,2018702,-10.368198,-2.682463,5.041593,0.04520403,-1.0372492,-1.3891076,100
1776161596625,2017957,-9.539509,-2.8884377,4.9721365,0.30665436,-1.0177015,-1.7470746,100
1776161596666,2017810,-7.7001057,-2.3255997,4.083571,0.643852,-0.84299403,-1.7739527,100
1776161596705,2017652,-9.058103,-1.9759214,3.0465114,0.58032197,-0.6646214,-1.5968018,100
1776161596744,2017726,-8.440178,-1.6980948,3.2357209,0.31764993,-0.46670106,-1.2730432,100
1776161596785,2017252,-7.3911433,-1.4514041,3.4776216,-0.18081611,-0.18325958,-0.57910025,100
1776161596826,2016729,-6.0235662,-0.5748135,3.8392751,-0.5681047,0.12583824,-0.015882496,100
1776161596868,2016686,-4.6655693,-0.20597483,3.5231276,-0.5876524,0.38606682,0.56199604,100
1776161596907,2017265,-5.228408,-0.4047645,3.068067,-0.6621779,0.65118235,1.2205088,100
1776161596947,2018570,-6.138529,-0.46464092,2.7782652,-1.110553,0.8698721,1.8093829,100
1776161596985,2020359,-7.362403,-0.76162785,2.7495246,-1.6627752,0.97494096,2.257758,100
1776161597027,2022517,-8.0905,-1.154417,2.6177964,-2.026851,0.95905846,2.7269025,100
1776161597066,2024292,-9.225757,-1.3891326,2.3902662,-2.3970351,0.95417154,3.31822,100
1776161597105,2025504,-10.497531,-1.8465884,1.877724,-2.5802948,0.7367035,3.7751472,100
1776161597146,2026280,-13.323698,-2.5100188,1.621453,-2.9382617,0.3494149,3.9229765,100
1776161597186,2026906,-15.268483,-2.9171784,1.8010823,-3.4012976,0.064751714,3.6077702,100
1776161597225,2026208,-16.221716,-3.1974,0.9891582,-4.0671406,-0.17959438,3.1557298,100
1776161597265,2025685,-17.529417,-3.5279179,0.72330695,-2.8955014,-0.48991394,2.2907448,100
1776161597306,2025279,-14.923595,-5.034408,-0.1532836,-2.8283062,-0.5705481,1.9107865,100
1776161597345,2024704,-11.383702,-2.9722648,0.0766418,-2.6169467,-0.68539083,1.8802432,100
1776161597387,2024885,-10.564593,-3.499177,-0.30896226,-1.7446312,-0.6780604,1.7971655,100
1776161597425,2025045,-9.846076,-5.0847044,-0.21555506,-1.6749926,-0.37507126,1.3524556,100
1776161597465,2024651,-9.395805,-4.1913486,0.45266563,-0.9993755,0.05375614,0.5143485,100
1776161597509,2024051,-8.021043,-4.598508,1.0993308,0.14782938,0.2919936,-0.32375857,100
1776161597548,2023136,-7.25223,-4.2416444,1.9639461,1.0005972,0.4092797,-0.91507614,100
1776161597585,2022428,-7.2282796,-3.875201,2.1842914,1.459968,0.41172317,-1.2913691,100
1776161597625,2022277,-8.088105,-3.791374,2.3711057,1.8472565,0.4092797,-1.4477507,100
1776161597666,2022579,-8.871288,-3.62372,2.0070572,2.3652701,0.36163223,-1.5100589,100
1776161597712,2022909,-9.122769,-3.4009798,1.7220454,2.8368583,0.25045475,-1.6358972,100
1776161597745,2023244,-9.688003,-3.1447089,1.6861196,3.1312952,0.10995574,-1.831374,100
1776161597788,2023515,-9.831706,-2.8309565,1.5687618,3.368311,-0.13683382,-1.9462167,100
1776161597825,2022989,-10.863975,-2.732759,1.5280459,3.5479054,-0.5180137,-1.9914207,100
1776161597868,2022293,-13.393154,-2.859697,1.6454036,2.8283062,-0.79412484,-1.9926424,100
1776161597907,2021714,-14.353572,-2.1938715,1.9495758,1.9022343,-0.956615,-2.0916026,100
1776161597946,2021298,-14.923595,-1.6238481,2.2274022,1.6603317,-0.97005403,-2.3445008,100
1776161597986,2021065,-12.859056,-1.537626,2.2393775,1.5613716,-1.0946705,-2.7806585,100
1776161598025,2020994,-9.462867,-0.9987384,2.4860682,1.5137241,-1.0519099,-2.8417451,100
1776161598067,2021200,-9.594595,-0.95323235,1.8178476,0.91629785,-0.9016371,-2.3774874,100
1776161598106,2021631,-9.946669,-0.81671417,2.4261918,0.625526,-0.7538077,-1.990199,100
1776161598147,2021922,-9.34551,-1.5472063,2.507624,0.27855456,-0.59864795,-1.5418239,100
1776161598186,2022033,-8.188697,-1.0322692,2.8285613,-0.089186326,-0.38240165,-1.1924089,100
1776161598225,2022472,-7.25223,-1.0178989,2.814191,-0.037873644,-0.15393804,-0.86742866,101
1776161598268,2023056,-6.4139605,-1.0586149,3.204585,0.35185838,0.15393804,-0.4373795,101
1776161598305,2023898,-6.272652,-1.4011079,3.1878197,0.19303341,0.43982297,-0.019547688,101
1776161598348,2024943,-6.1289487,-1.020294,3.6931767,-0.11728613,0.63285637,0.33475417,101
