ts,ppg_raw,acc_x,acc_y,acc_z,gyr_x,gyr_y,gyr_z,hr
1776047906665,2097152,2.8620923,2.466908,8.998226,0.039095376,0.03176499,-0.08307768,
1776047906707,2097152,2.8620923,2.466908,8.998226,0.039095376,0.03176499,-0.08307768,
1776047906743,2274456,2.9650795,2.7974257,8.94793,0.057421334,0.035430185,-0.04153884,
1776047906783,2274442,2.97945,2.6345618,8.868893,0.07574729,0.064751714,-0.030543262,
1776047906823,2274369,2.9315488,2.7112036,8.890449,0.13561209,0.015882496,-0.0842994,
1776047906863,2274411,2.7974257,2.7016234,8.765905,0.103847094,-0.008552114,-0.08307768,
1776047906903,2274368,2.9531043,2.7902405,9.129954,0.103847094,-0.008552114,-0.08307768,
1776047906955,2274312,2.5363646,2.938734,8.514424,0.59742624,-0.24556783,-0.13927728,
1776047906985,2274312,2.5363646,2.938734,8.514424,0.5290093,-0.22724187,-0.12339478,
1776047907023,2274293,3.0896225,2.9195735,9.084448,1.1313224,-0.65240407,-0.35918877,
1776047907065,2274454,2.5675,3.0608819,8.794646,0.7305948,-0.75136423,-0.021991149,
1776047907104,2074024,3.1638691,3.7698185,8.466523,0.7305948,-0.75136423,-0.021991149,
1776047907144,2073692,3.068067,3.7626333,8.564721,0.7305948,-0.75136423,-0.021991149,
1776047907184,2073115,3.365054,3.626115,8.425808,-0.19181168,0.058643065,-0.039095376,
1776047907222,2072402,3.793769,3.8296947,8.392277,-0.88208944,0.45937067,-0.48747048,
1776047907263,2072252,3.0057955,3.6141398,8.662918,-0.31520647,-0.13439035,-0.31764993,
1776047907302,2096828,4.0692005,3.9446576,8.176722,-0.31520647,-0.13439035,-0.31764993,
1776047907344,2096195,3.149499,3.283622,8.595857,-0.31520647,-0.13439035,-0.31764993,
1776047907383,2096093,3.532708,3.5303128,8.447363,-0.31520647,-0.13439035,-0.31764993,
1776047907424,2095350,3.5614486,3.0153759,8.7299795,-0.15760323,0.042760566,-0.037873644,0
1776047907464,2096468,3.3171527,3.1758444,8.471313,-0.007330383,-0.103847094,-0.034208454,0
1776047907504,2097399,3.288412,3.1207583,8.682078,-0.007330383,-0.103847094,-0.034208454,0
1776047907544,2096884,3.3530786,2.9650795,8.765905,-0.007330383,-0.103847094,-0.034208454,0
1776047907582,2099529,3.321943,2.6633024,8.598251,-0.007330383,-0.103847094,-0.034208454,0
1776047907638,2103678,3.4728315,3.068067,8.792252,-0.09162979,-0.030543262,-0.064751714,0
1776047907670,2104277,3.2453012,3.2453012,8.684474,0.04642576,-0.105068825,0.02443461,0
1776047907702,2104277,3.2453012,3.2453012,8.684474,0.04642576,-0.105068825,0.02443461,0
1776047907744,2094512,3.288412,3.0800424,9.067682,0.04642576,-0.105068825,0.02443461,0
1776047907782,2090143,3.412955,3.065672,8.9958315,0.04642576,-0.105068825,0.02443461,0
1776047907823,2086620,3.3842144,3.1518939,8.432993,-0.105068825,0.058643065,0.002443461,0
1776047907864,2079198,3.5566585,3.1806345,8.708425,0.12217305,0.056199603,0.04153884,0
1776047907904,2073745,3.367449,3.1974,8.502449,0.118507855,0.042760566,-0.064751714,0
1776047907943,2069188,3.4680414,3.4776216,8.670103,0.118507855,0.042760566,-0.064751714,0
1776047907984,2065427,3.662041,2.9507093,8.950325,0.118507855,0.042760566,-0.064751714,0
1776047908022,2064531,3.4848068,3.6907816,8.921584,-0.408058,0.2565634,-0.5693264,0
1776047908064,2066391,2.9986103,3.3027825,8.552746,-0.5839872,0.27122417,-0.37384954,0
1776047908104,2068766,3.4057698,3.2932022,8.677289,-0.29443705,0.39950588,0.1001819,0
1776047908144,2071375,3.1327336,3.62372,8.483289,-0.29443705,0.39950588,0.1001819,0
1776047908186,2073873,4.8428035,2.9243636,8.624598,-0.29443705,0.39950588,0.1001819,0
1776047908224,2075192,0.6897762,5.1781116,8.112056,-0.27366763,0.49113566,0.02321288,0
1776047908264,2074695,0.87898564,3.999744,9.273658,-0.50579643,0.24190263,1.0494665,0
1776047908303,2072733,2.641747,3.793769,9.074868,-0.36651915,0.33841935,1.1068878,0
1776047908344,2071552,1.4322436,3.326733,9.144324,-0.36651915,0.33841935,1.1068878,0
1776047908383,2070326,1.4346386,2.938734,8.696449,-0.36651915,0.33841935,1.1068878,0
1776047908429,2069257,1.7340207,2.2824886,8.500054,0.081855945,0.50823987,1.1068878,0
1776047908463,2068185,1.3699721,1.6885146,9.050918,0.008552114,0.516792,1.1178834,0
1776047908504,2067084,1.7052801,1.5639716,8.5479555,-0.13683382,0.68416905,0.81122905,0
1776047908543,2065489,1.5711569,-0.18441933,8.981461,-0.13683382,0.68416905,0.81122905,0
1776047908585,2063121,1.1376517,-0.7831834,9.338325,-0.13683382,0.68416905,0.81122905,0
1776047908624,2060898,1.449009,-0.47661617,9.2688675,-0.13683382,0.68416905,0.81122905,0
1776047908663,2059373,2.3998463,-0.7065416,10.432865,0.02076942,0.37873647,0.58032197,0
1776047908702,2057868,2.8333514,-0.34967822,10.308322,-0.012217305,0.44715336,0.22724187,0
1776047908743,2056716,2.7998207,0.15567866,10.042471,-0.1966986,0.37873647,0.32986724,0
1776047908784,2055611,1.9591559,0.01916045,9.604176,-0.1966986,0.37873647,0.32986724,0
1776047908823,2054001,0.5796036,0.6634306,9.453287,-0.1966986,0.37873647,0.32986724,0
1776047908863,2052824,0.383209,1.0107137,9.362274,0.20769419,0.032986723,1.1630874,0
1776047908905,2051688,1.3100958,0.30417213,9.968224,-0.111177474,0.31398472,-0.057421334,0
1776047908942,2050465,-0.22753033,1.4561942,10.806494,-0.14294247,-0.010995574,-0.4007276,0
1776047908983,2050292,0.30896226,0.20836988,10.380174,-0.14294247,-0.010995574,-0.4007276,0
1776047909024,2049965,0.60834426,0.4359002,9.826916,-0.14294247,-0.010995574,-0.4007276,0
1776047909063,2049813,0.7807883,0.8454548,9.276052,-0.015882496,0.11484267,-0.004886922,0
1776047909104,2049929,0.45027056,0.895751,9.316769,-0.06719518,0.13316862,0.07696902,0
1776047909144,2049492,0.5748135,0.9891582,9.683212,-0.12095132,0.14782938,0.09896017,0
1776047909186,2048006,0.46224585,0.9987384,9.79099,-0.12095132,0.14782938,0.09896017,0
1776047909224,2046101,0.3329128,0.7065416,9.836495,-0.12095132,0.14782938,0.09896017,0
1776047909263,2043992,0.3209375,0.58439374,9.841286,-0.118507855,0.09285152,0.10140363,0
1776047909303,2042124,0.4430854,0.3329128,9.635311,-0.12339478,0.11484267,0.087964594,0
1776047909344,2040664,0.22274023,0.5796036,9.654471,-0.22113322,0.06719518,0.07574729,0
1776047909384,2039600,0.3329128,0.7041465,9.556274,-0.32742378,0.09407325,0.09773844,0
1776047909423,2038376,0.25866607,-0.055086292,9.764644,-0.32742378,0.09407325,0.09773844,0
1776047909466,2037003,0.12454292,-0.011975281,9.889187,-0.032986723,-0.02321288,-0.010995574,0
1776047909505,2036042,0.10777753,-0.34249303,9.654471,0.08552113,0.056199603,0.004886922,0
1776047909543,2035249,0.3209375,0.03113573,9.551484,0.021991149,-0.010995574,0.002443461,0
1776047909582,2034901,0.045506068,0.31375235,9.719138,-0.037873644,-0.02076942,-0.007330383,0
1776047909623,2034786,0.22274023,0.29698697,9.7167425,-0.037873644,-0.02076942,-0.007330383,0
1776047909663,2034519,0.3065672,0.12454292,9.594595,-0.037873644,-0.02076942,-0.007330383,0
1776047909703,2034147,0.21316001,0.0071851686,9.692792,0.002443461,-0.002443461,-0.0036651916,0
1776047909742,2033769,0.1916045,0.13172808,9.697582,-0.008552114,0.0061086523,-0.002443461,0
1776047909784,2033214,0.17483911,0.19878966,9.721533,-0.03176499,-0.0036651916,0.002443461,0
1776047909823,2031764,0.18681438,0.08622202,9.683212,-0.03176499,-0.0036651916,0.002443461,0
1776047909864,2029947,0.1963946,0.08143191,9.661656,-0.03176499,-0.0036651916,0.002443461,0
1776047909903,2028098,0.15088853,0.15567866,9.707163,-0.036651913,0.009773844,-0.002443461,0
1776047909942,2026622,0.30417213,0.0047901124,9.704767,-0.018325957,0.012217305,0.0036651916,0
1776047909984,2025295,0.1796292,-0.0047901124,9.637706,0.010995574,0.0036651916,-0.0061086523,0
1776047910024,2024312,0.17244405,0.13891326,9.666447,-0.008552114,0.019547688,-0.0036651916,0
1776047910062,2023266,0.21316001,0.12454292,9.668841,-0.008552114,0.019547688,-0.0036651916,0
1776047910103,2022333,0.18920943,0.06945663,9.723928,0.014660766,0.0061086523,-0.002443461,0
1776047910144,2021634,0.21316001,-0.29219687,9.647286,0.0,0.02321288,0.0012217305,0
1776047910184,2020949,0.20597483,0.10538247,9.704767,-0.034208454,-0.004886922,-0.002443461,0
1776047910222,2020576,0.18681438,0.040715955,9.635311,-0.034208454,-0.004886922,-0.002443461,0
1776047910264,2020311,0.1916045,-0.1532836,9.676027,-0.034208454,-0.004886922,-0.002443461,0
1776047910303,2020134,0.19878966,-0.08143191,9.776619,0.004886922,0.007330383,0.007330383,0
1776047910343,2020071,0.06466652,0.06706157,9.704767,-0.059864793,-0.008552114,0.0,0
1776047910383,2020041,0.16046876,-0.047901124,9.731113,-0.029321533,-0.007330383,0.007330383,0
1776047910422,2019878,0.23711056,-0.26106113,9.608966,0.02321288,0.012217305,-0.002443461,0
1776047910462,2018615,0.11975281,0.059876405,9.707163,0.02321288,0.012217305,-0.002443461,0
1776047910503,2017027,0.15567866,0.08861708,9.7862,0.02321288,0.012217305,-0.002443461,0
1776047910542,2015669,0.20357978,-0.16046876,9.721533,0.0036651916,0.004886922,-0.0012217305,0
1776047910585,2014517,0.14849348,-0.052691236,9.647286,-0.007330383,0.002443461,0.0012217305,0
1776047910623,2013683,0.21076494,-0.0766418,9.680817,-0.018325957,0.002443461,0.002443461,0
1776047910664,2013135,0.18441933,0.011975281,9.652077,-0.015882496,-0.0036651916,0.002443461,0
1776047910703,2012402,0.1916045,-0.122147866,9.697582,-0.015882496,-0.0036651916,0.002443461,0
1776047910744,2011702,0.21076494,-0.040715955,9.685607,-0.010995574,-0.0036651916,0.002443461,0
1776047910784,2011266,0.17483911,-0.01916045,9.666447,0.0012217305,0.0,0.002443461,0
1776047910823,2011003,0.17483911,-0.091012135,9.707163,0.010995574,0.002443461,0.0,0
1776047910863,2010873,0.14609843,-0.11975281,9.740693,0.007330383,0.002443461,0.0012217305,0
1776047910903,2010848,0.22274023,-0.059876405,9.747879,0.007330383,0.002443461,0.0012217305,0
1776047910943,2010997,0.12693799,-0.079036854,9.762249,0.0036651916,0.0,0.0012217305,0
1776047910984,2011247,0.13891326,-0.06945663,9.714348,-0.0036651916,0.0,0.0012217305,0
1776047911022,2011461,0.13412315,-0.10059236,9.743089,-0.0061086523,-0.0012217305,0.0012217305,0
1776047911064,2011112,0.16046876,-0.035925843,9.755064,0.009773844,0.002443461,0.0012217305,0
1776047911104,2009839,0.17723416,-0.11735775,9.695188,0.009773844,0.002443461,0.0012217305,0
1776047911146,2008541,0.20597483,-0.023950562,9.647286,-0.008552114,0.0012217305,0.004886922,0
1776047911183,2007631,0.18920943,-0.033530787,9.740693,0.012217305,-0.0036651916,0.0012217305,0
1776047911222,2006919,0.22034517,-0.079036854,9.7167425,0.010995574,0.009773844,0.0012217305,0
1776047911267,2006523,0.11735775,0.047901124,9.673632,-0.013439035,-0.0036651916,0.0036651916,0
1776047911303,2006191,0.19878966,-0.009580225,9.690397,-0.013439035,-0.0036651916,0.0036651916,0
1776047911342,2005855,0.102987416,-0.14130831,9.711953,-0.013439035,-0.0036651916,0.0036651916,0
1776047911382,2005570,0.10777753,-0.026345618,9.659262,-0.014660766,0.0,0.0036651916,0
1776047911423,2005596,0.16286382,0.033530787,9.680817,-0.012217305,0.008552114,0.009773844,0
1776047911463,2005649,0.0766418,-0.17004898,9.752668,0.008552114,-0.0061086523,-0.0061086523,0
1776047911504,2005649,0.0766418,-0.17004898,9.752668,0.015882496,0.0036651916,-0.0012217305,0
1776047911543,2006222,0.22513528,-0.05748135,9.762249,0.015882496,0.0036651916,-0.0012217305,0
1776047911582,2006660,0.18920943,-0.15807371,9.695188,0.009773844,-0.002443461,-0.0012217305,0
1776047911623,2007185,0.1796292,-0.08382697,9.707163,0.013439035,0.007330383,0.002443461,0
1776047911662,2007041,0.18920943,0.0,9.714348,-0.0012217305,-0.0012217305,0.004886922,0
1776047911702,2005936,0.17004898,-0.052691236,9.707163,-0.004886922,-0.0036651916,0.002443461,0
1776047911744,2004685,0.10777753,-0.102987416,9.690397,-0.004886922,-0.0036651916,0.002443461,0
1776047911782,2003444,0.22034517,-0.026345618,9.750274,-0.004886922,-0.004886922,0.0012217305,0
1776047911823,2002592,0.09340719,-0.009580225,9.656866,-0.007330383,-0.0012217305,0.0012217305,0
1776047911862,2002132,0.20357978,-0.04311101,9.709558,0.0061086523,0.0061086523,0.0012217305,0
1776047911902,2001766,0.15088853,-0.08622202,9.668841,0.010995574,-0.0012217305,0.002443461,0
1776047911944,2001428,0.14849348,-0.014370337,9.680817,0.010995574,-0.0012217305,0.002443461,0
1776047911986,2001225,0.16765393,-0.011975281,9.750274,-0.021991149,0.004886922,0.0,0
1776047912022,2001133,0.13891326,-0.110172585,9.688003,0.008552114,0.0,0.002443461,0
1776047912063,2001263,0.16765393,0.052691236,9.692792,0.0036651916,0.0012217305,0.0012217305,0
1776047912103,2001468,0.18920943,0.08382697,9.702373,-0.02076942,-0.009773844,0.004886922,0
1776047912142,2001870,0.17004898,-0.0766418,9.656866,-0.02076942,-0.009773844,0.004886922,0
1776047912187,2002271,0.1532836,-0.15088853,9.630521,-0.010995574,-0.004886922,0.002443461,0
1776047912223,2002744,0.14849348,0.0,9.685607,-0.018325957,-0.002443461,0.0036651916,0
1776047912263,2003249,0.21076494,-0.03113573,9.743089,0.004886922,0.002443461,0.0012217305,0
1776047912303,2003186,0.17244405,-0.20118472,9.709558,0.013439035,0.004886922,0.002443461,0
1776047912343,2002059,0.15088853,-0.009580225,9.652077,0.013439035,0.004886922,0.002443461,0
1776047912382,2000654,0.15088853,-0.052691236,9.656866,0.013439035,0.004886922,0.002443461,0
1776047912423,1999529,0.23711056,-0.10059236,9.695188,-0.008552114,-0.0061086523,0.002443461,0
1776047912468,1998638,0.1532836,-0.026345618,9.738298,0.004886922,0.0061086523,0.002443461,0
1776047912502,1998207,0.1532836,-0.055086292,9.757459,0.0061086523,0.004886922,0.002443461,0
1776047912542,1997819,0.1796292,-0.01916045,9.767039,0.0036651916,0.0012217305,0.0012217305,0
1776047912582,1997467,0.21316001,-0.10059236,9.743089,0.0036651916,0.0012217305,0.0012217305,0
1776047912622,1997142,0.16765393,-0.0071851686,9.714348,-0.02321288,-0.007330383,0.004886922,0
1776047912665,1997012,0.2179501,-0.0383209,9.752668,-0.008552114,0.0036651916,0.0,0
1776047912704,1997194,0.16286382,-0.06466652,9.707163,-0.0036651916,0.002443461,0.0036651916,0
1776047912743,1997397,0.14849348,-0.021555506,9.673632,-0.018325957,-0.0012217305,0.002443461,0
1776047912783,1997672,0.13651821,-0.06227146,9.659262,-0.018325957,-0.0012217305,0.002443461,0
1776047912823,1998113,0.21555506,-0.15567866,9.676027,0.002443461,0.002443461,0.0012217305,0
1776047912862,1998534,0.0766418,0.0383209,9.731113,-0.02321288,-0.007330383,0.0,0
1776047912906,1999171,0.28501168,-0.06945663,9.688003,-0.014660766,-0.0012217305,-0.0012217305,0
1776047912943,1999676,0.08382697,-0.122147866,9.714348,-0.0061086523,0.0036651916,0.0012217305,0
1776047912983,1999290,0.0766418,-0.13412315,9.699978,-0.0061086523,0.0036651916,0.0012217305,0
1776047913022,1998025,0.20118472,-0.06227146,9.7167425,-0.0061086523,0.0036651916,0.0012217305,0
1776047913063,1996783,0.14849348,-0.18920943,9.757459,-0.0012217305,0.019547688,0.0061086523,0
1776047913103,1995859,0.08382697,-0.055086292,9.644892,0.0012217305,-0.004886922,-0.007330383,0
1776047913143,1995169,0.2179501,-0.047901124,9.781409,-0.010995574,0.009773844,0.002443461,0
1776047913182,1994997,0.08861708,-0.110172585,9.661656,-0.010995574,0.009773844,0.002443461,0
1776047913222,1994902,0.18441933,-0.12454292,9.640101,-0.0012217305,0.0036651916,0.0061086523,0
1776047913264,1994772,0.13651821,-0.07424674,9.752668,-0.021991149,0.0,0.002443461,0
1776047913304,1994748,0.20357978,-0.18202427,9.692792,0.004886922,0.004886922,-0.0012217305,0
1776047913343,1994818,0.079036854,-0.17244405,9.728718,0.017104227,0.002443461,0.0012217305,0
1776047913383,1995108,0.14609843,-0.059876405,9.709558,0.017104227,0.002443461,0.0012217305,0
1776047913425,1995545,0.14370337,-0.0981973,9.774224,-0.0036651916,0.0012217305,-0.002443461,0
1776047913463,1996088,0.15088853,-0.24669078,9.664052,0.012217305,0.007330383,0.0,0
1776047913503,1996615,0.091012135,-0.09340719,9.721533,-0.02076942,-0.0036651916,0.0,0
1776047913544,1997280,0.14609843,-0.10777753,9.714348,-0.010995574,0.0,0.0,0
1776047913582,1997989,0.14849348,-0.15567866,9.690397,-0.010995574,0.0,0.0,0
1776047913623,1998472,0.102987416,-0.071851686,9.671237,-0.010995574,0.0,0.0,0
1776047913663,1997912,0.15088853,-0.0023950562,9.709558,-0.018325957,-0.002443461,0.002443461,0
1776047913703,1996700,0.16765393,-0.19399956,9.707163,0.009773844,0.0061086523,0.0012217305,0
1776047913744,1995762,0.15567866,-0.122147866,9.702373,0.0012217305,-0.0061086523,0.0012217305,0
1776047913782,1995034,0.102987416,-0.035925843,9.762249,-0.009773844,-0.0036651916,0.0012217305,0
1776047913822,1994806,0.14849348,-0.11975281,9.692792,-0.009773844,-0.0036651916,0.0012217305,0
1776047913863,1994708,0.079036854,-0.22753033,9.676027,-0.009773844,-0.0036651916,0.0012217305,0
1776047913910,1994380,0.17723416,-0.16046876,9.692792,-0.009773844,-0.0036651916,0.0012217305,0
1776047913943,1994380,0.17723416,-0.16046876,9.692792,-0.009773844,-0.0036651916,0.0012217305,0
1776047913986,1994470,0.14849348,-0.17244405,9.697582,-0.009773844,-0.0036651916,0.0012217305,0
1776047914023,1994804,0.12693799,-0.14370337,9.688003,-0.009773844,-0.0036651916,0.0012217305,0
1776047914063,1995237,0.102987416,-0.03113573,9.704767,-0.0036651916,-0.0012217305,0.002443461,0
1776047914105,1995697,0.17244405,-0.1532836,9.704767,0.0036651916,0.0012217305,0.0,0
1776047914142,1996394,0.16046876,-0.13651821,9.688003,0.0036651916,0.0012217305,0.0,0
1776047914182,1997135,0.11256764,-0.059876405,9.704767,0.013439035,0.0036651916,0.002443461,0
1776047914224,1997888,0.14849348,-0.16765393,9.735904,0.010995574,0.0,0.002443461,0
1776047914263,1998209,0.14130831,-0.12693799,9.719138,0.004886922,-0.002443461,0.0012217305,0
1776047914304,1997439,0.1796292,-0.11256764,9.695188,0.002443461,0.0,0.002443461,0
1776047914343,1996211,0.17004898,-0.11256764,9.702373,0.002443461,0.0,0.002443461,0
1776047914383,1995300,0.16765393,-0.09340719,9.743089,0.0036651916,-0.002443461,0.0012217305,0
1776047914422,1994675,0.18441933,-0.1149627,9.699978,0.002443461,0.0012217305,0.002443461,0
1776047914462,1994594,0.18920943,-0.11975281,9.707163,0.0012217305,0.0,0.002443461,0
1776047914504,1994605,0.16525888,-0.15807371,9.726323,0.0036651916,0.002443461,0.0012217305,0
1776047914545,1994575,0.14370337,-0.102987416,9.623336,0.0036651916,0.002443461,0.0012217305,0
1776047914584,1994559,0.1796292,-0.10777753,9.723928,-0.0012217305,0.0012217305,0.002443461,0
1776047914622,1994782,0.17483911,-0.16286382,9.664052,0.007330383,0.0,0.0012217305,0
1776047914662,1995076,0.15807371,-0.15088853,9.697582,0.002443461,0.002443461,0.002443461,0
1776047914703,1995684,0.16046876,-0.08622202,9.692792,0.0012217305,-0.0012217305,0.002443461,0
1776047914744,1996269,0.13412315,-0.1149627,9.695188,0.0012217305,-0.0012217305,0.002443461,0
1776047914783,1996988,0.14849348,-0.079036854,9.688003,-0.013439035,-0.0036651916,0.0012217305,0
1776047914823,1997735,0.14609843,-0.071851686,9.652077,-0.0036651916,0.0036651916,0.0036651916,0
1776047914862,1998552,0.1796292,-0.13412315,9.745483,0.013439035,0.0012217305,0.002443461,0
1776047914902,1998986,0.14849348,-0.08861708,9.676027,0.0012217305,-0.002443461,0.002443461,0
1776047914943,1998275,0.12693799,-0.05748135,9.702373,-0.0061086523,-0.002443461,0.002443461,0
1776047914983,1996922,0.17723416,-0.16046876,9.723928,-0.0061086523,-0.002443461,0.002443461,0
1776047915024,1995701,0.12933303,-0.06227146,9.707163,-0.002443461,-0.002443461,-0.002443461,0
1776047915062,1994851,0.079036854,-0.15567866,9.697582,-0.004886922,0.0,0.0,0
1776047915102,1994430,0.16765393,-0.14370337,9.659262,0.0012217305,0.0012217305,-0.0012217305,0
1776047915143,1994301,0.102987416,-0.14370337,9.704767,0.0036651916,0.002443461,0.0,0
1776047915182,1994184,0.20836988,-0.06466652,9.731113,0.0036651916,0.002443461,0.0,0
1776047915222,1994040,0.16765393,-0.12933303,9.719138,0.002443461,0.002443461,0.0,0
1776047915263,1994027,0.12454292,-0.13891326,9.709558,-0.002443461,0.0012217305,-0.0012217305,0
1776047915303,1994237,0.13891326,-0.091012135,9.702373,-0.0036651916,0.0012217305,0.0,0
1776047915342,1994643,0.17483911,-0.09340719,9.728718,-0.0012217305,0.002443461,0.0,0
1776047915383,1995211,0.11256764,-0.10777753,9.764644,-0.0012217305,0.002443461,0.0,0
1776047915422,1995853,0.12693799,-0.09340719,9.7167425,-0.017104227,-0.0036651916,0.0,0
1776047915463,1996570,0.11975281,-0.045506068,9.731113,-0.009773844,0.0,-0.0012217305,0
1776047915502,1997328,0.18202427,-0.17004898,9.702373,0.015882496,0.002443461,-0.0012217305,0
1776047915543,1998017,0.15807371,-0.06706157,9.699978,-0.002443461,-0.0012217305,0.0,0
1776047915582,1997940,0.1963946,-0.04311101,9.735904,-0.002443461,-0.0012217305,0.0,0
1776047915624,1996853,0.21076494,-0.15088853,9.7167425,0.004886922,0.004886922,-0.002443461,0
1776047915662,1995540,0.19878966,-0.028740674,9.728718,-0.010995574,-0.0012217305,-0.0012217305,0
1776047915702,1994633,0.16525888,-0.0766418,9.671237,-0.007330383,0.004886922,-0.002443461,0
1776047915742,1993962,0.11735775,-0.20118472,9.735904,-0.0012217305,0.002443461,-0.002443461,0
1776047915783,1993791,0.1916045,-0.055086292,9.721533,-0.0012217305,0.002443461,-0.002443461,0
1776047915822,1993684,0.13891326,-0.102987416,9.692792,-0.0012217305,0.002443461,-0.002443461,0
1776047915862,1993577,0.16046876,-0.11256764,9.707163,-0.007330383,0.002443461,-0.002443461,0
1776047915904,1993606,0.12933303,-0.0981973,9.723928,0.0,0.0061086523,0.0,0
1776047915943,1993741,0.16525888,-0.08622202,9.752668,-0.004886922,0.0012217305,0.0012217305,0
1776047915983,1994107,0.1796292,-0.05029618,9.714348,-0.009773844,0.002443461,0.0012217305,0
1776047916023,1994678,0.16286382,-0.13891326,9.745483,-0.009773844,0.002443461,0.0012217305,0
1776047916063,1995346,0.14130831,-0.122147866,9.690397,-0.007330383,0.008552114,0.0012217305,0
1776047916103,1996051,0.20836988,-0.12693799,9.668841,-0.012217305,0.0,-0.0012217305,0
1776047916142,1996829,0.11256764,-0.07424674,9.702373,-0.009773844,-0.0012217305,-0.0012217305,0
1776047916183,1997587,0.11735775,-0.06227146,9.745483,-0.0036651916,0.004886922,-0.0036651916,0
1776047916222,1998439,0.15567866,-0.079036854,9.702373,-0.0036651916,0.004886922,-0.0036651916,0
1776047916263,1998693,0.17244405,-0.03113573,9.685607,-0.010995574,0.0012217305,0.0,0
1776047916303,1997778,0.0981973,-0.0981973,9.709558,-0.008552114,0.0036651916,-0.002443461,0
1776047916342,1996606,0.16525888,-0.12454292,9.769434,-0.007330383,0.0,-0.0012217305,0
1776047916391,1995735,0.11256764,-0.11256764,9.733508,-0.0036651916,0.0,-0.0012217305,0
1776047916423,1995170,0.17244405,-0.102987416,9.728718,-0.0036651916,0.0,-0.0012217305,0
1776047916463,1995114,0.16525888,-0.110172585,9.673632,0.0012217305,0.0036651916,0.0,0
1776047916504,1995163,0.15567866,-0.14370337,9.699978,-0.007330383,-0.002443461,0.0,0
1776047916544,1995027,0.14849348,-0.06945663,9.738298,-0.007330383,-0.002443461,0.0,0
1776047916582,1994949,0.16525888,-0.14370337,9.673632,0.007330383,0.002443461,-0.0012217305,0
1776047916622,1995136,0.12933303,-0.09580225,9.704767,0.007330383,0.002443461,-0.0012217305,0
1776047916663,1995438,0.06945663,-0.040715955,9.688003,-0.008552114,-0.0036651916,0.0,0
1776047916705,1996018,0.18681438,-0.12693799,9.733508,0.008552114,0.007330383,0.0,0
1776047916742,1996706,0.13172808,-0.08382697,9.7167425,-0.009773844,-0.004886922,0.0012217305,0
1776047916782,1997363,0.11256764,-0.06945663,9.7167425,-0.004886922,-0.004886922,0.0,0
1776047916822,1997960,0.17483911,-0.16286382,9.704767,-0.004886922,-0.004886922,0.0,0
1776047916862,1998885,0.08622202,-0.09580225,9.688003,-0.004886922,-0.004886922,0.0,0
1776047916906,1999407,0.11256764,-0.15807371,9.757459,-0.0036651916,-0.0012217305,-0.0012217305,0
1776047916942,1998872,0.15567866,-0.05748135,9.719138,0.002443461,-0.0012217305,-0.0012217305,0
1776047916985,1997854,0.15807371,-0.059876405,9.738298,-0.0012217305,0.002443461,0.0,0
1776047917022,1997086,0.055086292,-0.110172585,9.692792,-0.0012217305,0.002443461,0.0,0
1776047917062,1996587,0.18441933,-0.110172585,9.704767,0.0,0.0,-0.0012217305,0
1776047917102,1996603,0.15807371,-0.091012135,9.649681,0.0036651916,0.002443461,0.0,0
1776047917143,1996774,0.17244405,-0.06706157,9.738298,-0.009773844,-0.002443461,0.0,0
1776047917182,1996909,0.15567866,-0.014370337,9.728718,0.0,0.0,-0.002443461,0
1776047917223,1997069,0.15088853,-0.13651821,9.707163,0.0,0.0,-0.002443461,0
1776047917264,1997422,0.12933303,-0.10538247,9.728718,0.0036651916,0.002443461,0.0,0
1776047917304,1997924,0.13891326,-0.033530787,9.747879,0.0012217305,-0.002443461,-0.0012217305,0
1776047917344,1998597,0.20357978,-0.091012135,9.731113,0.002443461,0.004886922,-0.0012217305,0
1776047917382,1999416,0.09340719,-0.17723416,9.688003,-0.014660766,-0.002443461,0.0012217305,0
1776047917422,2000202,0.15567866,-0.05748135,9.714348,-0.014660766,-0.007330383,-0.0012217305,0
1776047917463,2001099,0.12933303,-0.17483911,9.743089,-0.014660766,-0.007330383,-0.0012217305,0
1776047917503,2002079,0.15088853,-0.091012135,9.719138,-0.0036651916,-0.002443461,0.0012217305,0
1776047917543,2002334,0.19399956,-0.016765393,9.692792,-0.0036651916,0.0,-0.0012217305,0
1776047917582,2001627,0.14130831,-0.026345618,9.726323,-0.0012217305,0.0,-0.0012217305,0
1776047917623,2000565,0.17244405,-0.0981973,9.678422,-0.004886922,0.004886922,-0.0012217305,0
1776047917663,1999750,0.16046876,-0.09340719,9.685607,-0.004886922,0.004886922,-0.0012217305,0
1776047917702,1999179,0.06466652,-0.08143191,9.740693,-0.0036651916,0.0,0.0,0
1776047917743,1999178,0.16286382,-0.13412315,9.723928,0.004886922,0.0012217305,-0.0012217305,0
1776047917784,1999291,0.09580225,-0.08143191,9.745483,-0.007330383,-0.002443461,0.0,0
1776047917822,1999336,0.18441933,-0.01916045,9.7167425,-0.012217305,0.0,-0.0012217305,0
1776047917862,1999454,0.22274023,-0.13891326,9.769434,-0.012217305,0.0,-0.0012217305,0
1776047917903,1999752,0.13651821,-0.0383209,9.697582,-0.012217305,0.0,-0.0012217305,0
1776047917946,2000277,0.12933303,-0.040715955,9.757459,-0.013439035,-0.0036651916,0.0,0
1776047917983,2000920,0.14370337,-0.16046876,9.769434,0.0061086523,0.007330383,-0.0012217305,0
1776047918024,2001584,0.11256764,-0.102987416,9.685607,-0.012217305,-0.002443461,0.0,0
1776047918063,2002406,0.09580225,0.045506068,9.644892,-0.012217305,-0.002443461,0.0,0
1776047918107,2003203,0.110172585,-0.13412315,9.738298,0.009773844,0.0012217305,-0.0012217305,0
1776047918144,2004104,0.16286382,-0.0981973,9.707163,-0.002443461,0.0,-0.0012217305,0
1776047918184,2004472,0.10538247,-0.01916045,9.704767,-0.013439035,0.0012217305,-0.0012217305,0
1776047918224,2003845,0.13891326,-0.071851686,9.683212,-0.0012217305,0.002443461,0.0,0
1776047918263,2002959,0.14130831,-0.1149627,9.779015,-0.0012217305,0.002443461,0.0,0
1776047918303,2002170,0.17004898,-0.09580225,9.747879,-0.0012217305,0.002443461,0.0,0
1776047918342,2001654,0.17723416,0.011975281,9.711953,-0.008552114,-0.002443461,-0.0012217305,0
1776047918383,2001531,0.09580225,-0.10777753,9.721533,0.0,-0.0012217305,0.0,0
1776047918427,2001623,0.1963946,-0.035925843,9.711953,-0.0012217305,0.0036651916,0.0012217305,91
1776047918462,2001700,0.1963946,-0.035925843,9.711953,-0.007330383,0.0012217305,-0.0012217305,91
1776047918503,2001766,0.10777753,-0.06466652,9.781409,-0.007330383,0.0012217305,-0.0012217305,91
1776047918544,2002094,0.06227146,-0.11256764,9.671237,-0.004886922,0.0036651916,0.0,91
1776047918585,2002521,0.13412315,-0.0383209,9.673632,-0.0036651916,0.0036651916,-0.0012217305,91
1776047918623,2003083,0.11975281,-0.08143191,9.774224,-0.002443461,0.0,-0.002443461,91
1776047918669,2003814,0.047901124,-0.033530787,9.731113,-0.010995574,0.010995574,-0.0012217305,91
1776047918710,2004452,0.047901124,-0.033530787,9.731113,-0.010995574,0.010995574,-0.0012217305,91
1776047918742,2005290,0.12454292,-0.12933303,9.668841,-0.010995574,0.010995574,-0.0012217305,91
1776047918784,2006142,0.12693799,-0.06706157,9.688003,-0.012217305,0.0,-0.0012217305,91
1776047918823,2007000,0.18202427,-0.08382697,9.673632,0.002443461,0.0012217305,-0.002443461,91
1776047918862,2007137,0.13651821,-0.08861708,9.709558,0.0012217305,0.0061086523,-0.0012217305,91
1776047918903,2006543,0.1532836,-0.0047901124,9.726323,0.0012217305,0.0061086523,-0.0012217305,91
1776047918942,2005668,0.13651821,-0.07424674,9.685607,-0.018325957,-0.002443461,-0.002443461,91
1776047918983,2005025,0.13172808,-0.122147866,9.711953,0.0036651916,0.007330383,-0.0012217305,91
1776047919022,2004659,0.13651821,-0.09580225,9.685607,-0.008552114,0.0012217305,-0.0012217305,91
1776047919064,2004744,0.13172808,-0.07424674,9.7167425,-0.017104227,-0.0012217305,-0.002443461,91
1776047919104,2004832,0.12693799,-0.16046876,9.719138,-0.017104227,-0.0012217305,-0.002443461,91
1776047919147,2005032,0.10777753,-0.09580225,9.757459,-0.004886922,0.002443461,-0.0012217305,91
1776047919184,2005171,0.10777753,-0.10538247,9.637706,-0.014660766,0.0,0.0,91
1776047919222,2005560,0.10777753,-0.102987416,9.692792,-0.007330383,0.0012217305,-0.002443461,91
1776047919263,2006028,0.19878966,-0.12933303,9.721533,-0.0012217305,0.0036651916,0.0,91
1776047919303,2006728,0.122147866,-0.06227146,9.690397,-0.0061086523,0.0036651916,0.0,91
1776047919343,2007391,0.13172808,-0.14609843,9.652077,-0.0061086523,0.0036651916,0.0,91
1776047919382,2008126,0.10059236,-0.0766418,9.699978,-0.014660766,0.0,-0.0012217305,91
1776047919425,2008975,0.11975281,-0.17244405,9.692792,-0.0012217305,0.002443461,-0.0012217305,91
1776047919462,2009820,0.17723416,-0.05748135,9.735904,-0.004886922,-0.0012217305,0.0,91
1776047919502,2010740,0.14130831,-0.13172808,9.745483,-0.002443461,-0.002443461,-0.0012217305,91
1776047919544,2011520,0.10777753,-0.13891326,9.709558,-0.002443461,-0.002443461,-0.0012217305,91
1776047919582,2011390,0.13172808,-0.059876405,9.738298,-0.009773844,-0.004886922,0.0,91
1776047919624,2010645,0.18441933,-0.110172585,9.757459,-0.004886922,-0.0012217305,0.0061086523,91
1776047919665,2010088,0.011975281,-0.14370337,9.731113,0.0012217305,0.0012217305,-0.002443461,91
1776047919703,2009672,0.14130831,-0.16286382,9.666447,-0.0012217305,0.0012217305,-0.0012217305,91
1776047919743,2009613,0.102987416,-0.079036854,9.764644,-0.0012217305,0.0012217305,-0.0012217305,91
1776047919782,2009881,0.091012135,-0.1149627,9.707163,-0.0036651916,-0.0012217305,-0.0012217305,91
1776047919824,2010042,0.1532836,-0.059876405,9.699978,0.0,0.0,-0.0012217305,91
1776047919862,2010219,0.14849348,-0.14609843,9.699978,0.0,0.0012217305,0.0012217305,91
1776047919902,2010510,0.122147866,-0.016765393,9.699978,-0.0036651916,0.0,-0.0012217305,91
1776047919944,2011105,0.0766418,-0.18920943,9.81494,-0.0036651916,0.0,-0.0012217305,91
1776047919982,2011678,0.18441933,-0.11256764,9.762249,-0.004886922,-0.002443461,-0.002443461,91
1776047920024,2012381,0.14849348,-0.110172585,9.726323,0.007330383,0.007330383,-0.002443461,91
1776047920062,2013197,0.06227146,-0.13891326,9.714348,-0.0036651916,0.0012217305,-0.0012217305,91
1776047920106,2014031,0.13651821,-0.05748135,9.779015,-0.007330383,-0.002443461,0.0,91
1776047920142,2014950,0.12693799,-0.10059236,9.673632,-0.007330383,-0.002443461,0.0,91
1776047920186,2015810,0.10059236,-0.08622202,9.781409,0.007330383,0.0,0.0012217305,91
1776047920225,2016708,0.13172808,-0.11735775,9.697582,0.008552114,0.0036651916,0.0,91
1776047920262,2016581,0.122147866,-0.06466652,9.731113,-0.009773844,-0.0036651916,0.0,91
1776047920303,2016017,0.16286382,-0.05748135,9.709558,0.0036651916,0.0,0.0,91
1776047920344,2015494,0.07424674,-0.15807371,9.733508,0.0036651916,0.0,0.0,91
1776047920384,2015138,0.13651821,-0.13651821,9.757459,0.0036651916,0.0,0.0,91
1776047920423,2015196,0.13891326,-0.09580225,9.697582,-0.002443461,0.004886922,-0.002443461,91
1776047920464,2015409,0.11256764,-0.047901124,9.745483,-0.0061086523,0.0012217305,0.0,91
1776047920507,2015889,0.079036854,-0.026345618,9.728718,-0.010995574,-0.0061086523,-0.0012217305,91
1776047920544,2015889,0.10059236,-0.15807371,9.723928,-0.0061086523,-0.0012217305,0.0,91
1776047920583,2016307,0.17483911,-0.122147866,9.695188,-0.0061086523,-0.0012217305,0.0,91
1776047920628,2017461,0.20597483,-0.08622202,9.7167425,-0.010995574,-0.0012217305,-0.002443461,91
1776047920663,2017461,0.20597483,-0.08622202,9.7167425,-0.007330383,0.004886922,0.0012217305,91
1776047920706,2018277,0.14609843,-0.11975281,9.709558,0.015882496,0.0036651916,-0.0012217305,91
1776047920744,2019079,0.14609843,-0.11256764,9.740693,0.010995574,0.009773844,-0.002443461,91
1776047920783,2019912,0.16046876,-0.01916045,9.723928,0.010995574,0.009773844,-0.002443461,91
1776047920823,2020763,0.13651821,-0.15807371,9.685607,0.012217305,0.008552114,-0.0012217305,91
1776047920864,2021684,0.102987416,-0.17723416,9.767039,0.0036651916,0.0012217305,0.0012217305,91
1776047920902,2022618,0.15567866,-0.06945663,9.678422,-0.017104227,-0.007330383,0.0,91
1776047920942,2023251,0.20597483,-0.08861708,9.719138,-0.007330383,0.0,0.0,91
1776047920984,2023048,0.0981973,-0.13651821,9.726323,-0.007330383,0.0,0.0,91
1776047921022,2022524,0.122147866,-0.1149627,9.762249,-0.010995574,-0.004886922,0.0,91
1776047921062,2022045,0.1532836,-0.17483911,9.628126,0.0036651916,0.0036651916,-0.0012217305,91
1776047921104,2021735,0.12454292,-0.12693799,9.747879,0.0061086523,0.0061086523,-0.0012217305,91
1776047921143,2021792,0.1796292,-0.040715955,9.683212,0.021991149,0.010995574,0.002443461,91
1776047921184,2022240,0.10059236,-0.13891326,9.822125,0.021991149,0.010995574,0.002443461,91
1776047921222,2022467,0.1963946,-0.1149627,9.230547,0.021991149,0.010995574,0.002443461,91
1776047921271,2022781,0.011975281,-0.03113573,9.759854,0.02321288,0.017104227,-0.010995574,91
1776047921309,2023708,0.26106113,-0.091012135,9.836495,-0.0012217305,-0.002443461,-0.004886922,91
1776047921376,2024220,0.011975281,-0.045506068,9.7862,-0.008552114,0.010995574,0.004886922,91
1776047921407,2025118,0.22513528,-0.110172585,9.448497,-0.008552114,0.010995574,0.004886922,91
1776047921423,2025118,0.22513528,-0.110172585,9.448497,-0.008552114,0.010995574,0.004886922,91
1776047921463,2026325,0.08382697,-0.091012135,9.812545,-0.008552114,0.010995574,0.004886922,91
1776047921506,2027809,0.13412315,0.04311101,9.34551,-0.008552114,0.010995574,0.004886922,91
1776047921542,2029518,0.10538247,-0.011975281,9.683212,-0.008552114,0.010995574,0.004886922,91
1776047921582,2031124,0.20836988,-0.110172585,9.5419035,-0.008552114,0.010995574,0.004886922,91
1776047921623,2032342,0.09340719,-0.055086292,9.656866,-0.02687807,0.047647487,-0.047647487,91
1776047921664,2032979,0.09340719,0.10538247,9.819731,-0.05497787,-0.029321533,0.0036651916,91
1776047921712,2033994,0.2299254,-0.24429573,9.630521,-0.05497787,-0.029321533,0.0036651916,91
1776047921742,2033994,0.08382697,-0.059876405,9.501188,-0.05497787,-0.029321533,0.0036651916,91
1776047921783,2034520,-0.102987416,0.0071851686,10.052051,-0.05497787,-0.029321533,0.0036651916,91
1776047921823,2035275,0.21076494,-0.05748135,9.743089,-0.05497787,-0.029321533,0.0036651916,91
1776047921872,2035695,0.035925843,-0.110172585,9.728718,-0.05497787,-0.029321533,0.0036651916,91
1776047921908,2035695,0.035925843,-0.110172585,9.728718,-0.007330383,-0.002443461,-0.004886922,91
1776047921943,2035675,0.18441933,-0.11735775,9.702373,-0.004886922,0.002443461,-0.0012217305,91
1776047921985,2035757,0.10538247,-0.033530787,9.688003,-0.004886922,0.002443461,-0.0012217305,91
1776047922031,2036203,0.20357978,-0.0047901124,9.673632,-0.004886922,0.002443461,-0.0012217305,91
1776047922063,2036737,0.0766418,-0.17004898,9.699978,-0.004886922,0.002443461,-0.0012217305,91
1776047922102,2037425,0.023950562,-0.1149627,9.676027,-0.004886922,0.002443461,-0.0012217305,91
1776047922153,2038069,0.13412315,-0.21555506,9.735904,-0.004886922,0.002443461,-0.0012217305,91
1776047922184,2038719,0.047901124,-0.14370337,9.788594,-0.004886922,0.002443461,-0.0012217305,91
1776047922225,2039412,0.06466652,-0.13172808,9.7167425,-0.004886922,0.002443461,-0.0012217305,91
1776047922280,2040133,0.1963946,-0.09580225,9.735904,0.002443461,0.0,0.0012217305,91
1776047922309,2040837,0.12454292,-0.12693799,9.764644,-0.007330383,-0.0036651916,0.002443461,91
1776047922344,2041197,0.045506068,-0.110172585,9.735904,-0.0061086523,-0.0036651916,-0.002443461,91
1776047922383,2040960,0.04311101,-0.14370337,9.697582,-0.0061086523,-0.0036651916,-0.002443461,91
1776047922430,2040378,0.12933303,-0.11256764,9.738298,-0.0061086523,-0.0036651916,-0.002443461,91
1776047922463,2040378,0.0383209,-0.11256764,9.711953,-0.0061086523,-0.0036651916,-0.002443461,91
1776047922503,2040366,0.08143191,-0.20118472,9.747879,-0.0061086523,-0.0036651916,-0.002443461,91
1776047922549,2040529,0.09580225,-0.10538247,9.726323,-0.0061086523,-0.0036651916,-0.002443461,91
1776047922583,2040826,0.06945663,-0.10059236,9.723928,-0.0061086523,-0.0036651916,-0.002443461,91
1776047922622,2041065,0.06466652,-0.13651821,9.783805,-0.002443461,-0.0012217305,0.0,91
1776047922662,2041311,0.17004898,-0.10777753,9.714348,-0.0036651916,0.0,0.0,91
1776047922718,2042161,0.07424674,-0.14370337,9.697582,-0.0036651916,0.0,0.0,91
1776047922742,2042161,0.091012135,-0.17244405,9.769434,-0.0036651916,0.0,0.0,91
1776047922782,2042822,0.091012135,-0.17244405,9.769434,-0.0036651916,0.0,0.0,91
1776047922843,2043486,0.12454292,-0.1149627,9.762249,-0.0036651916,0.0,0.0,91
1776047922875,2044186,0.04311101,-0.13651821,9.690397,-0.0036651916,0.0,0.0,91
1776047922905,2044877,0.08622202,-0.17244405,9.690397,-0.0036651916,0.0012217305,0.002443461,91
1776047922942,2045603,0.08143191,-0.11735775,9.697582,0.008552114,0.0012217305,0.0,91
1776047922987,2046374,0.08861708,-0.14130831,9.755064,0.008552114,0.0012217305,0.0,91
1776047923041,2046307,0.10059236,-0.13172808,9.668841,0.008552114,0.0012217305,0.0,91
1776047923062,2046307,0.10059236,-0.13172808,9.668841,0.008552114,0.0012217305,0.0,91
1776047923102,2045947,0.110172585,-0.13651821,9.747879,0.008552114,0.0012217305,0.0,91
1776047923150,2045744,0.059876405,-0.16765393,9.755064,0.008552114,0.0012217305,0.0,91
1776047923182,2045703,0.08382697,-0.11256764,9.77183,0.008552114,0.0012217305,0.0,91
1776047923222,2045863,0.0981973,-0.06227146,9.745483,0.008552114,0.0012217305,0.0,91
1776047923262,2046130,0.047901124,-0.22034517,9.726323,0.0036651916,0.002443461,0.0,91
1776047923303,2046370,0.12693799,-0.08143191,9.711953,-0.0061086523,0.0012217305,0.0,91
1776047923343,2046617,0.08382697,-0.14849348,9.714348,0.0,0.0036651916,-0.0012217305,91
1776047923396,2047464,0.04311101,-0.08622202,9.676027,0.0,0.0036651916,-0.0012217305,91
1776047923424,2047464,0.04311101,-0.08622202,9.676027,0.0,0.0036651916,-0.0012217305,91
1776047923462,2048015,0.12454292,-0.11256764,9.735904,0.0,0.0036651916,-0.0012217305,91
1776047923510,2048567,0.023950562,-0.13651821,9.764644,0.0,0.0036651916,-0.0012217305,91
1776047923543,2049217,0.122147866,-0.13412315,9.80536,0.0,0.0036651916,-0.0012217305,91
1776047923590,2049878,0.079036854,-0.06945663,9.77183,-0.09896017,-0.014660766,0.0,91
1776047923624,2050510,-0.08382697,0.11975281,10.2556305,-0.2125811,-0.07574729,-0.012217305,91
1776047923701,2051333,-0.0981973,1.6525887,11.2879,-0.2125811,-0.07574729,-0.012217305,91
1776047923720,2051132,-0.47182608,1.8082675,11.968096,-0.2125811,-0.07574729,-0.012217305,91
1776047923743,2051132,-0.47182608,1.8082675,11.968096,-0.2125811,-0.07574729,-0.012217305,91
1776047923797,2051177,-0.56523323,-1.7388108,11.177728,-0.2125811,-0.07574729,-0.012217305,91
1776047923824,2052293,0.7065416,-4.1434474,8.219832,-0.2125811,-0.07574729,-0.012217305,91
1776047923865,2053396,1.7052801,-5.53258,5.937344,-0.2125811,-0.07574729,-0.012217305,91
1776047923929,2053136,4.109916,-7.6617846,3.2860172,-0.2125811,-0.07574729,-0.012217305,91
1776047923948,2053136,4.109916,-7.6617846,3.2860172,-0.2125811,-0.07574729,-0.012217305,91
1776047923993,2051317,3.882386,-5.9876404,2.641747,-0.2125811,-0.07574729,-0.012217305,91
1776047924022,2050317,-0.3281227,-1.1879479,12.79918,-0.2125811,-0.07574729,-0.012217305,91
1776047924063,2050317,-0.3281227,-1.1879479,12.79918,1.5931365,0.105068825,-0.61575216,91
1776047924103,2050515,-2.938734,5.4894686,18.185661,-0.9114109,-2.2186625,0.16493362,91
1776047924145,2051813,-1.1137011,7.6545997,17.330627,-0.9114109,-2.2186625,0.16493362,91
1776047924212,2052643,-0.98197305,2.6513271,12.013602,-0.9114109,-2.2186625,0.16493362,91
1776047924232,2052315,1.8370081,-2.2034516,6.1648746,-0.9114109,-2.2186625,0.16493362,91
1776047924299,2052170,7.879735,-7.795908,-3.5566585,-0.9114109,-2.2186625,0.16493362,91
1776047924306,2052170,7.879735,-7.795908,-3.5566585,-0.9114109,-2.2186625,0.16493362,91
1776047924359,2048557,4.1985335,-7.585143,-4.644014,-0.9114109,-2.2186625,0.16493362,91
1776047924382,2045273,4.1985335,-7.585143,-4.644014,-0.9114109,-2.2186625,0.16493362,91
1776047924422,2042897,-1.3005155,-9.82452,3.6883864,-0.9114109,-2.2186625,0.16493362,91
1776047924504,2040211,-3.2908072,-3.750658,19.859806,3.7995818,-0.6206391,-0.6817256,90
1776047924521,2036439,4.184163,12.657872,21.835728,3.7995818,-0.6206391,-0.6817256,90
1776047924542,2036439,4.184163,12.657872,21.835728,-5.5564303,-4.7610836,2.5118778,90
1776047924588,2043119,-1.0610099,1.2262688,11.987256,-5.4513617,-5.998697,2.5240953,90
1776047924625,2043715,-1.6142678,-5.455938,4.4212737,-5.4513617,-5.998697,2.5240953,90
1776047924673,2045137,4.828433,-15.388236,-14.720016,-5.4513617,-5.998697,2.5240953,90
1776047924708,2045137,4.828433,-15.388236,-14.720016,-5.4513617,-5.998697,2.5240953,90
1776047924754,2028507,3.8680158,-4.2871504,-9.798175,-5.4513617,-5.998697,2.5240953,90
1776047924789,2081893,1.1160961,-6.7372932,-3.2357209,-5.4513617,-5.998697,2.5240953,90
1776047924827,2240255,-2.0741186,-3.4297204,9.6257305,-5.4513617,-5.998697,2.5240953,90
1776047924869,2485259,-1.9256252,8.181512,4.2440395,-5.4513617,-5.998697,2.5240953,90
1776047924906,2105313,5.3170247,38.716084,16.990528,-5.4513617,-5.998697,2.5240953,90
1776047924942,2084090,2.009452,12.037553,10.605309,-7.692015,-2.6035078,5.67616,90
1776047924983,2074475,-2.387871,7.1252923,8.823387,-17.905682,-4.5704937,2.9651399,90
1776047925028,2061772,-7.5971184,-7.7527966,-4.260805,-17.905682,-4.5704937,2.9651399,90
1776047925064,2063357,1.1855528,1.7675514,-21.035778,-17.905682,-4.5704937,2.9651399,90
1776047925104,2062189,6.789984,-5.0870996,-20.928001,-17.905682,-4.5704937,2.9651399,90
1776047925142,2537945,2.7615,-9.278448,-18.041958,-17.905682,-4.5704937,2.9651399,90
1776047925182,2709368,4.3302617,-6.3253436,-10.428075,-17.905682,-4.5704937,2.9651399,90
1776047925224,3005707,5.0463834,0.7568377,9.522743,29.916515,0.22113322,-2.7867672,90
1776047925265,3158661,2.7543147,6.3948,-10.408915,-0.5363397,2.5692992,-0.095294975,90
1776047925344,2465532,-1.2933303,4.4979157,9.898767,-0.5363397,2.5692992,-0.095294975,90
1776047925354,2465532,-1.2933303,4.4979157,9.898767,-0.5363397,2.5692992,-0.095294975,90
1776047925383,2048370,-3.5949793,0.6442701,7.786328,-0.5363397,2.5692992,-0.095294975,90
1776047925422,2044258,-0.8574301,4.4595947,-8.967091,-0.5363397,2.5692992,-0.095294975,90
1776047925464,2038835,9.355089,-12.904563,-19.196375,-0.5363397,2.5692992,-0.095294975,90
1776047925504,2038835,9.355089,-12.904563,-19.196375,-0.5363397,2.5692992,-0.095294975,90
1776047925542,2651897,-0.32572764,-5.920579,-7.1516376,-0.5363397,2.5692992,-0.095294975,90
1776047925588,2651897,0.5772085,-6.643886,0.938862,-0.5363397,2.5692992,-0.095294975,90
1776047925632,2085696,-5.4846787,25.061869,5.2715187,-0.5363397,2.5692992,-0.095294975,90
1776047925665,2085696,-5.4846787,25.061869,5.2715187,-12.967447,-2.9345965,3.145956,90
1776047925723,3625444,-6.854651,-0.936467,2.9171784,-18.417587,-3.2204816,2.324953,90
1776047925742,3625444,-6.854651,-0.936467,2.9171784,-29.788233,-6.599788,-1.9694295,90
1776047925783,2067723,3.5638437,1.6118728,-20.547188,-24.080309,-3.259577,0.8784242,90
1776047925852,3303133,3.8129294,-5.7864556,-26.532433,-24.080309,-3.259577,0.8784242,90
1776047925866,3303133,3.8129294,-5.7864556,-26.532433,-24.080309,-3.259577,0.8784242,90
1776047925911,2264913,-0.10777753,-9.235336,1.4705645,-24.080309,-3.259577,0.8784242,90
1776047925942,2264913,-0.10777753,-9.235336,1.4705645,-24.080309,-3.259577,0.8784242,90
1776047925983,2257456,7.4797606,-1.9759214,0.6059492,-24.080309,-3.259577,0.8784242,90
1776047926024,2223897,4.8883095,69.09498,28.024553,-24.080309,-3.259577,0.8784242,90
1776047926064,2223897,-1.2478243,4.948186,7.750402,-24.080309,-3.259577,0.8784242,90
1776047926105,2237776,-5.659518,0.4478755,6.478627,-24.080309,-3.259577,0.8784242,90
1776047926149,2061539,0.0766418,-0.13891326,-21.141161,-20.690006,-3.9205332,0.54367006,90
1776047926194,2072740,7.8294387,-10.087976,-17.002504,2.2296581,2.5497515,3.3389895,90
1776047926226,3140103,0.0981973,3.7626333,-18.837116,15.911818,1.4037683,2.6755898,90
1776047926269,3859723,2.1866863,-3.6788063,-13.704512,15.911818,1.4037683,2.6755898,90
1776047926305,2621748,3.712337,-6.7013674,-1.9519708,15.911818,1.4037683,2.6755898,90
1776047926342,3405230,10.291556,3.3578687,11.479505,15.911818,1.4037683,2.6755898,90
1776047926389,2281814,1.1328616,8.928769,6.004406,15.911818,1.4037683,2.6755898,90
1776047926428,2253021,-1.9519708,7.7456117,13.455425,15.911818,1.4037683,2.6755898,90
1776047926487,2277663,-2.083699,1.621453,9.470052,15.911818,1.4037683,2.6755898,91
1776047926514,2139330,4.6583843,-5.0176425,-19.17482,15.911818,1.4037683,2.6755898,91
1776047926553,2139330,4.6583843,-5.0176425,-19.17482,15.911818,1.4037683,2.6755898,91
1776047926587,2757396,9.18504,-9.980199,-2.9339437,15.911818,1.4037683,2.6755898,91
1776047926622,4046822,-0.7304921,-18.825142,-11.424418,15.911818,1.4037683,2.6755898,91
1776047926665,3687682,4.0763855,-7.719266,-6.188825,15.911818,1.4037683,2.6755898,91
1776047926703,2418554,4.7517915,3.62372,4.8907046,15.911818,1.4037683,2.6755898,91
1776047926742,2315567,0.7448625,2.9602895,4.9362106,15.911818,1.4037683,2.6755898,91
1776047926783,2281939,-1.4945151,2.5914507,9.252102,15.911818,1.4037683,2.6755898,91
1776047926825,2330412,-1.2310588,-4.562582,6.0810475,15.911818,1.4037683,2.6755898,91
1776047926866,2153096,3.662041,-3.877596,-10.380174,15.911818,1.4037683,2.6755898,91
1776047926903,2172463,5.6068263,-4.9912972,-11.5298,15.911818,1.4037683,2.6755898,91
1776047926942,2785261,1.281355,1.0753802,-15.081669,15.911818,1.4037683,2.6755898,91
1776047926992,4031340,2.1220198,-10.380174,-14.693669,15.911818,1.4037683,2.6755898,91
1776047927023,2648200,5.4008517,-1.8346131,-6.789984,15.911818,1.4037683,2.6755898,91
1776047927075,2320064,3.961423,13.129698,9.144324,15.911818,1.4037683,2.6755898,91
1776047927104,2320064,3.961423,13.129698,9.144324,-14.593571,-3.7409387,3.0592132,91
1776047927143,2288220,-1.5256507,12.248318,14.190708,-4.690223,-2.7818804,2.4397957,91
1776047927182,2293907,3.4273255,-1.745996,11.903429,-2.9932396,-2.4312437,2.6096163,91
1776047927222,2273418,-0.028740674,0.44069034,11.06516,-2.9932396,-2.4312437,2.6096163,91
1776047927264,2229041,-1.9711312,-2.6513271,8.385092,-14.690087,-4.714658,0.6805039,91
1776047927309,2231347,-1.3556018,-3.6907816,-1.1711825,-15.906931,-3.3377676,-0.9053023,91
1776047927344,2232924,3.7674234,-9.1706705,-4.04525,-5.2424455,-0.829555,-2.2724187,91
1776047927405,2386707,4.2823606,-7.46539,-3.7793987,3.2534683,-1.5418239,-1.2852604,91
1776047927422,2386707,4.2823606,-7.46539,-3.7793987,3.3658676,-1.2742649,-0.84788096,91
1776047927462,2268875,4.2344594,-5.3960614,-2.5507348,3.3658676,-1.2742649,-0.84788096,92
1776047927502,2268179,3.8895712,-5.0008774,-4.6320386,3.3658676,-1.2742649,-0.84788096,92
1776047927550,2280918,4.861964,-5.1733212,-7.194749,-0.12583824,-1.8399261,-0.3811799,92
1776047927585,2401018,2.687253,-5.848727,-11.922589,2.003638,-1.0274754,-0.37384954,92
1776047927622,2924147,1.9399955,-3.3051775,-14.657743,0.6291912,0.5131268,0.44226643,92
1776047927662,3131427,4.984112,-2.98424,-12.672242,0.8943067,2.7635543,0.47769663,92
1776047927702,3388030,4.5314465,-4.869149,-13.642241,1.6737708,4.520403,1.1472049,92
1776047927745,3995287,3.070462,-5.3457656,-10.911876,1.7666223,5.666386,1.2571607,92
1776047927782,3882814,2.054958,-6.557664,-7.848599,1.2217305,6.6889744,1.5137241,92
1776047927827,3791393,1.1472319,-7.067811,-4.655989,0.9077458,7.3597045,1.1911873,92
1776047927864,3378008,-1.2909353,-9.709558,-2.5028336,0.9505063,6.940651,0.48991394,92
1776047927905,2794529,-4.102731,-11.838762,1.7172552,1.0152581,5.0665164,-0.59620446,92
1776047927942,2313250,-4.5506067,-12.928514,7.077391,0.59986967,2.8405235,-2.1600194,92
1776047927983,2277466,-3.2979925,-10.152643,6.703762,0.30176744,1.863139,-1.2840388,92
1776047928022,2269679,-3.8488553,-5.4631233,13.752413,0.54611355,0.62796944,-0.7611381,92
1776047928063,2256044,-3.583004,-4.394928,13.050661,0.8686504,-0.8063421,0.43860126,92
1776047928103,2254793,-3.7338927,-3.666831,14.1044855,1.2461652,-2.3359487,1.5601498,92
1776047928143,2248445,-3.4800167,-4.093151,13.920067,0.70005155,-3.4953709,2.1917844,92
1776047928184,2243532,-3.712337,-3.5997694,9.934693,-0.40683624,-4.728097,2.8124237,92
1776047928224,2240394,-4.644014,-7.66418,10.109532,-0.9456194,-6.137974,2.334727,92
1776047928262,2239361,-4.4116936,-11.050789,5.237988,-1.3744467,-7.202101,1.8057177,92
1776047928303,2241611,-4.294336,-11.263949,-3.029746,-2.4226916,-6.497163,0.7965683,92
1776047928344,2241942,-3.365054,-13.7404375,-9.38862,-2.6132815,-5.5148916,-0.50946164,92
1776047928383,2245654,1.6525887,-10.150249,-7.027095,-1.4660766,-2.8759537,-1.8484782,92
1776047928424,2254505,0.4981717,-7.6977105,-11.651948,0.17348573,-1.7776178,-1.0910053,92
1776047928462,2272509,4.4500146,-5.700234,-15.13436,-0.04153884,0.8014552,-0.5558874,0
1776047928503,2265494,5.712209,-3.6428804,-11.941751,0.4813618,2.3921483,0.015882496,0
1776047928543,2499121,4.394928,-7.7336364,-13.000365,0.3042109,4.048815,0.5656612,0
1776047928584,2857315,4.7901125,-5.9828506,-11.0603695,0.02321288,5.93761,0.56688297,0
1776047928622,2863962,1.3268611,-9.992174,-7.6114883,-0.061086524,7.275405,0.61453044,0
1776047928664,2867396,-1.2741699,-10.610099,-4.4140887,0.3811799,8.263785,0.31398472,0
1776047928704,2736501,-5.4319873,-13.584759,1.2095034,2.4593434,7.2155404,-0.83077675,0
1776047928744,2311167,-8.468919,-11.814812,5.300259,1.6762142,4.5582767,-2.1771238,0
1776047928784,2235036,-9.642496,-10.6124935,10.284371,1.8057177,2.6340508,-2.7806585,0
1776047928822,2218919,-6.337319,-5.1876917,13.527277,1.1618657,0.9456194,-1.7311921,0
1776047928863,2216960,-2.6513271,1.2214787,16.906702,-0.312763,-0.7244862,-0.0012217305,0
1776047928902,2213599,-1.7196504,2.8046107,14.712831,0.63041294,-1.8167132,1.717753,0
1776047928943,2214472,-1.7244405,-2.2297974,13.500932,1.7788396,-2.5619688,2.538756,0
1776047928984,2212382,-1.8992796,-3.0992026,11.93217,1.6652187,-3.2693508,3.57234,0
1776047929023,2211431,-1.3148859,-3.115968,8.811412,-0.24678956,-4.344474,3.916868,0
1776047929062,2210844,-2.4908586,-7.472575,7.9851174,-1.4758505,-5.16792,3.6236527,0
1776047929102,2211635,-3.027351,-10.274791,3.5231276,-2.3652701,-5.4269266,2.3677137,0
1776047929145,2213299,-3.5590534,-13.682956,0.45266563,-2.3628268,-5.522222,0.73426,0
1776047929183,2213345,-0.6011591,-13.898511,-2.6537223,-1.5601498,-4.471534,-0.118507855,0
1776047929223,2215879,2.1818962,-10.952592,-6.983984,-0.95294976,-2.6010642,-0.15271631,0
1776047929264,2216129,4.8931,-9.743089,-7.8725495,-0.19303341,-0.51068336,-0.5900958,0
1776047929302,2217430,4.7541866,-8.502449,-9.213781,0.26267207,1.3610078,-0.6450737,0
1776047929344,2214391,4.730236,-9.062893,-8.816202,0.61086524,2.796541,-0.8979719,0
1776047929384,2213118,4.1410522,-8.583881,-6.464257,0.007330383,4.0268235,-1.0079277,0
1776047929424,2211181,3.5111523,-8.830572,-4.3158913,-0.13072516,5.435479,-0.8417723,0
1776047929463,2208385,2.5411546,-9.743089,-1.4322436,0.7086037,5.888741,-1.0005972,0
1776047929503,2205434,0.7041465,-9.168275,1.9663411,1.2938126,5.6285124,-1.7153096,0
1776047929543,2200919,-1.1616023,-8.380301,5.384086,1.287704,3.5650096,-2.13925,0
1776047929582,2197053,-2.4836733,-8.495264,11.584887,2.629164,2.4898868,-2.2821925,0
1776047929625,2194952,-0.6179245,-4.387743,10.519087,1.6859881,0.41783184,-0.657291,0
1776047929662,2192218,-2.1818962,1.537626,15.155915,0.64873886,-0.5119051,-0.047647487,0
1776047929704,2195199,1.664564,2.2393775,13.512907,-0.312763,-1.078788,0.7831292,0
1776047929744,2193751,1.9112549,1.0634049,10.674766,-0.37507126,-1.0054842,1.3658947,0
1776047929812,2191881,2.1507604,-1.8154526,10.128693,0.3885103,-2.2162192,3.097087,0
1776047929832,2192228,1.4418238,-3.2189555,7.685735,-0.14660765,-2.5057693,2.9578094,0
1776047929862,2191304,-0.27543145,-7.8270435,6.476232,1.3805555,-2.461787,2.6988027,0
1776047929914,2190689,0.8813807,-10.828049,3.5614486,2.1429152,-1.4172074,2.3872614,0
1776047929943,2190056,2.0645385,-8.883264,5.4703083,0.21380283,-1.1826351,1.4440855,0
1776047929983,2188419,3.4345105,-10.765778,5.192482,0.70738196,-0.43004912,1.028697,0
1776047930024,2187550,5.9900355,-9.82931,4.993692,0.49846604,-0.12095132,0.19547687,0
1776047930065,2184917,2.8932278,-6.0259614,4.6320386,-0.38362336,0.06719518,0.643852,0
1776047930112,2179779,3.3770292,-7.3168964,6.3397136,-0.38606682,0.18448131,0.5338962,0
1776047930142,2180674,3.3770292,-7.3168964,6.3397136,0.3848451,0.36163223,0.54611355,0
1776047930196,2178870,3.453671,-5.455938,7.0127244,-0.50335294,0.06352998,0.5571091,0
1776047930234,2176850,1.7148602,-7.3911433,7.046255,-0.32742378,-0.13561209,-0.06841691,0
1776047930272,2175605,1.7148602,-7.3911433,7.046255,-0.28955013,-0.10629055,-0.07941248,0
1776047930303,2174574,3.0896225,-6.2774425,6.5432935,-0.2284636,-0.036651913,0.12583824,0
1776047930344,2175555,2.7591047,-6.60796,6.725318,-0.14172074,0.007330383,0.19303341,0
1776047930381,2176369,2.476488,-6.315763,6.555269,-0.3885103,0.039095376,0.41416663,0
1776047930422,2175840,2.3519452,-6.4067755,6.732503,-0.47403142,-0.015882496,0.15149458,0
1776047930463,2175322,1.8226378,-8.07613,6.3253436,-0.04153884,-0.02687807,-0.080634214,0
1776047930503,2175027,2.3160193,-7.0414653,5.9972205,0.13316862,0.042760566,-0.043982297,0
1776047930551,2174927,2.2321923,-7.000749,6.6247253,-0.035430185,-0.036651913,-0.042760566,0
1776047930583,2174930,2.2896738,-6.907342,6.473837,0.0012217305,-0.013439035,0.013439035,0
1776047930624,2174473,2.4453523,-7.1540327,6.4043803,0.089186326,-0.0036651916,-0.02321288,0
1776047930671,2173143,2.2010567,-6.8786016,6.5361085,-0.06841691,-0.052534413,-0.043982297,0
1776047930702,2171197,2.34476,-6.9265027,6.595985,-0.061086524,-0.040317107,-0.021991149,0
1776047930744,2169283,2.3303897,-7.0558357,6.440306,-0.056199603,-0.02687807,-0.052534413,0
1776047930784,2167444,2.301649,-7.0869713,6.4882073,-0.12339478,-0.019547688,-0.06841691,0
1776047930826,2166001,2.4190068,-7.0151196,6.39001,-0.13927728,-0.014660766,-0.032986723,0
1776047930862,2164531,2.3974512,-6.945663,6.3421087,-0.204029,-0.02687807,-0.02687807,0
1776047930903,2163296,2.34476,-6.991169,6.3421087,-0.26633725,-0.05009095,-0.010995574,0
1776047930945,2162425,2.4501424,-7.1252923,6.1936154,-0.15515977,-0.05131268,-0.0036651916,0
1776047930985,2161707,2.4118216,-7.374378,6.0762577,-0.0720821,-0.039095376,-0.013439035,0
1776047931027,2161228,2.474093,-7.240255,6.0331464,-0.03176499,-0.018325957,-0.013439035,0
1776047931062,2160476,2.514809,-7.278576,5.956505,0.007330383,-0.0012217305,0.002443461,0
1776047931103,2159813,2.3902662,-7.2546253,5.9445295,0.04520403,0.008552114,-0.0012217305,0
1776047931142,2159271,2.512414,-7.3097115,6.1552944,0.010995574,-0.002443461,-0.009773844,0
1776047931184,2158912,2.469303,-7.166008,6.104998,0.028099801,0.008552114,-0.008552114,0
1776047931225,2158894,2.428587,-7.3025265,6.1169734,0.036651913,0.021991149,-0.012217305,0
1776047931263,2158291,2.4549327,-7.1827736,6.140924,0.019547688,0.02076942,0.0036651916,0
1776047931303,2156691,2.474093,-7.1779833,6.136134,0.021991149,0.008552114,-0.0036651916,0
1776047931343,2154639,2.4645128,-7.1875634,6.138529,0.021991149,-0.004886922,-0.02565634,0
1776047931383,2152719,2.383081,-7.2186995,6.097813,0.021991149,0.0012217305,-0.018325957,0
1776047931423,2151060,2.3950562,-7.23307,6.085838,0.04520403,0.0036651916,-0.017104227,0
1776047931462,2149915,2.4549327,-7.1779833,6.1481094,0.039095376,0.017104227,-0.0036651916,0
1776047931506,2148779,2.5052288,-7.122897,6.222356,0.0061086523,0.008552114,-0.0012217305,0
1776047931543,2147809,2.4022415,-7.0965514,6.1528993,0.0012217305,0.0,-0.0036651916,0
1776047931582,2146753,2.3854759,-7.1348724,6.2103806,0.0061086523,-0.0036651916,-0.0061086523,0
1776047931622,2145780,2.387871,-7.118107,6.1576896,0.015882496,-0.0036651916,-0.012217305,0
1776047931665,2145133,2.4812782,-7.1252923,6.188825,0.0012217305,-0.0061086523,-0.007330383,0
1776047931703,2144582,2.4429574,-7.0702057,6.188825,-0.017104227,0.0012217305,-0.0012217305,0
1776047931742,2144281,2.4836733,-7.1396623,6.263072,-0.0012217305,0.008552114,0.004886922,0
1776047931782,2144122,2.433377,-7.206724,6.2103806,-0.0061086523,-0.004886922,-0.004886922,0
1776047931823,2143848,2.4453523,-7.03428,6.2510967,-0.028099801,-0.009773844,-0.0012217305,0
1776047931865,2143696,2.4884634,-7.163613,6.169665,0.013439035,0.0036651916,-0.0012217305,0
1776047931903,2143679,2.428587,-7.1923537,6.2103806,0.009773844,-0.0012217305,-0.004886922,0
1776047931943,2142982,2.4357722,-7.1420574,6.2582817,-0.02443461,-0.009773844,-0.0036651916,0
1776047931982,2141283,2.4621177,-7.113317,6.2103806,-0.009773844,0.0036651916,0.0036651916,0
1776047932023,2139402,2.4453523,-7.1252923,6.179245,-0.0012217305,0.0,-0.002443461,0
1776047932066,2137686,2.4956486,-7.1324773,6.2487016,-0.002443461,-0.0036651916,-0.0061086523,0
1776047932104,2136239,2.4453523,-7.120502,6.2031956,0.0036651916,0.0012217305,-0.0036651916,0
1776047932145,2135434,2.430982,-7.1396623,6.2055907,-0.015882496,-0.004886922,-0.0036651916,0
1776047932182,2134730,2.3854759,-7.0869713,6.2750473,-0.010995574,-0.002443461,-0.002443461,0
1776047932223,2133977,2.4980435,-7.1827736,6.2439113,0.0036651916,0.002443461,-0.0012217305,0
1776047932264,2133256,2.469303,-7.1396623,6.227146,0.0061086523,0.002443461,-0.002443461,0
1776047932304,2132643,2.4142165,-7.1444526,6.224751,0.004886922,-0.0012217305,-0.004886922,0
1776047932344,2132358,2.5100188,-7.072601,6.217566,0.039095376,0.007330383,-0.009773844,0
1776047932384,2132192,2.476488,-7.0989466,6.260677,-0.08674286,-0.030543262,-0.002443461,0
1776047932423,2132195,2.4836733,-6.696577,6.8019595,-0.32742378,-0.14294247,0.10995574,0
1776047932464,2132345,2.4118216,-6.734898,6.7277126,-1.0897835,-0.0842994,0.15393804,108
1776047932505,2132386,3.2644615,-7.2163043,7.839019,-1.6811012,-0.75747293,-0.059864793,108
1776047932542,2132125,2.684858,-9.903558,7.601908,-2.6316075,-1.4147639,-0.7770206,108
1776047932583,2132396,2.1651309,-11.036419,5.190087,-3.9706242,-1.8668042,-1.4013249,108
1776047932625,2130620,3.6428804,-9.410175,2.9986103,-3.5479054,-1.1007792,-1.4086553,108
1776047932663,2129139,4.3757677,-9.446101,0.64666516,0.080634214,-0.70616025,-1.1777482,108
1776047932703,2127653,4.6607795,-7.2833657,-1.2957253,1.6566665,0.5045747,-0.6206391,108
1776047932744,2124661,4.5673723,-4.804483,-1.621453,2.792876,2.1539109,0.2406809,108
1776047932782,2121799,3.4416957,-4.646409,-1.1256764,3.9596286,3.76293,0.50701815,108
1776047932822,2121227,3.5255227,-5.015248,1.0753802,3.9266417,4.520403,0.5216789,108
1776047932864,2119551,1.0466396,-7.1899586,6.80675,4.9712214,2.7171285,-0.8368854,108
1776047932904,2117855,3.3985848,-8.75872,8.650943,5.148372,1.3048081,-0.75625116,108
1776047932947,2115704,1.9831065,-3.6021645,13.694931,1.5479325,-0.8539896,-0.13316862,108
1776047932983,2114171,3.0489066,0.98197305,14.346387,-2.403144,-2.235767,1.3329079,108
1776047933024,2115716,1.5567865,-1.1424417,10.789728,-7.3059483,-2.751337,1.1227703,108
1776047933062,2115708,0.9580225,-3.800954,5.331395,-12.026715,-2.814867,0.21868975,108
1776047933103,2117043,2.859697,-5.843937,-0.90293616,-13.836098,-1.0409144,0.13683382,108
1776047933143,2120929,4.828433,-6.4522815,-3.0896225,-12.686449,-0.27122417,0.112399206,108
1776047933184,2122991,3.7889788,-5.8678875,-3.0513015,-3.032335,-0.30665436,0.38728857,108
1776047933224,2120722,3.113573,-7.3528223,-8.928769,3.087313,0.20891592,0.65118235,108
1776047933263,2256891,2.9938202,-8.5551405,-8.8209915,6.53748,0.4654793,0.2602286,108
1776047933303,2268010,3.925497,-8.483289,-7.02949,9.723753,1.5125023,0.3213151,108
1776047933343,2718999,5.5182095,-7.640229,-2.6441422,13.900849,0.8723156,0.042760566,108
1776047933382,2707355,2.4166117,-7.3911433,-0.18681438,10.566747,0.22602014,-0.97127575,108
1776047933425,2243565,6.0642824,-5.798431,4.6200633,4.4727554,1.0775663,-0.09285152,108
1776047933466,2174033,4.4164834,0.27782652,8.234203,-0.6389651,0.21013765,0.81122905,109
1776047933503,2161351,3.83209,0.75204766,10.076001,-1.3316863,0.08307768,0.87109387,109
1776047933542,2163010,2.9219685,-4.018904,8.437783,-2.2553146,0.13805555,1.0983357,109
1776047933583,2158646,2.7207837,-3.0081906,8.5623255,-6.228382,-0.05375614,1.5442673,109
1776047933623,2152695,0.8334795,-4.895495,6.7492685,-8.283333,-0.2773328,1.2840388,109
1776047933664,2154463,0.81671417,-9.094028,2.1603408,-8.677952,-0.35063666,0.7855727,109
1776047933703,2157829,1.0705901,-11.407653,-1.3915277,-5.0579643,0.018325957,0.5815437,109
1776047933745,2160027,2.7231789,-13.009945,-3.786584,3.4929276,0.7110472,0.07696902,109
1776047933784,2159334,1.1855528,-13.088982,-5.523,6.6401052,0.45448375,-0.20769419,109
1776047933823,2159229,2.4597228,-8.478498,-0.51733214,5.213124,1.9474384,-0.6072,109
1776047933863,2156313,1.4298486,-9.1778555,3.111178,4.318817,1.609019,-0.83077675,109
1776047933904,2156794,0.19878966,-9.455682,4.933816,3.1215215,0.84421575,-1.6187929,109
1776047933947,2155469,-0.4814063,-9.237732,5.8056164,2.6193902,0.12705997,-1.7153096,109
1776047933984,2150444,-0.13651821,-5.6667027,9.089238,1.2486086,-0.6291912,-1.6823229,109
1776047934023,2146925,1.621453,-3.5087574,10.533457,0.49846604,-1.2962561,-1.0372492,109
1776047934066,2145206,3.3387084,-1.0634049,10.131087,0.4202753,-1.9498819,-0.07452556,109
1776047934105,2143249,4.5865326,-1.281355,9.915533,0.48380527,-2.0891593,0.47769663,109
1776047934143,2141832,5.5206046,-1.5998975,7.934821,0.3555236,-2.0097466,1.5906931,109
1776047934184,2140667,5.975665,-2.890833,5.73616,-0.047647487,-1.5173893,1.894904,109
1776047934225,2140748,4.768557,-5.108655,3.5710287,-1.4086553,-1.1239921,1.7922786,109
1776047934264,2141841,4.691915,-4.6703596,2.5339694,-2.9321532,-0.9932669,1.7519615,109
1776047934306,2143854,3.4752266,-7.2163043,1.8154526,-6.730513,-0.906524,1.2168436,109
1776047934343,2146052,2.6704876,-8.679684,-2.2250073,-8.383514,-0.88086766,0.784351,109
1776047934385,2147860,3.6883864,-7.637834,-4.6775446,-8.754921,0.40561453,1.4746287,109
1776047934425,2148016,4.7517915,-8.655733,-6.392405,-5.1104984,1.3316863,1.2559389,109
1776047934463,2148753,3.7746086,-17.32344,-11.982466,12.47509,0.57787853,-0.31887165,109
1776047934505,2458126,2.850117,-7.704896,-5.7864556,12.444547,3.5259142,-0.26633725,109
1776047934542,2198471,5.3026543,-6.093023,3.542288,12.505633,2.878397,-1.3903292,109
1776047934584,2161119,2.347155,-4.804483,7.077391,9.910678,1.4391985,-2.2650883,109
1776047934623,2161073,5.5253944,1.659774,9.637706,0.84788096,0.64873886,-1.4367551,109
1776047934662,2150441,3.3363132,8.401857,14.025449,-3.5515707,-2.035403,0.7134906,109
1776047934703,2147563,4.203324,-3.9087317,11.0531845,-3.627318,-2.9382617,0.44837508,109
1776047934744,2148973,3.8919663,-3.3770292,7.1348724,-5.0066514,-2.9883528,0.5155703,109
1776047934783,2141736,3.2021902,-3.8967564,2.0525632,-7.765319,-2.71102,0.22724187,109
1776047934822,2140871,3.7362876,-5.0847044,-2.083699,-10.126924,-1.4013249,0.24678956,109
1776047934864,2145934,5.072729,-3.7698185,-3.1183631,-2.7550023,3.0836477,2.5033257,109
1776047934903,2150201,0.95562744,-14.473325,-11.230418,5.773898,2.4043655,1.6859881,109
1776047934943,2151518,2.1435752,-6.057097,-4.768557,10.951592,3.8924334,1.6664404,109
1776047934984,2182974,3.9925587,-4.25841,5.0032725,8.582657,5.946162,0.23457226,109
1776047935024,2154891,1.3029106,-4.9242353,9.14672,4.664567,3.1251867,-1.409877,109
1776047935062,2158074,2.7950306,0.95323235,15.699594,1.6566665,0.41050145,0.27855456,109
1776047935102,2153546,2.3639205,3.1183631,17.91023,-1.1997393,-2.4190264,0.90408057,109
1776047935143,2152676,3.367449,-1.0514296,13.682956,-2.107485,-3.721391,1.9669861,109
1776047935183,2150830,1.8825141,-1.3891326,7.8222537,-5.2913146,-4.439769,1.7055358,109
1776047935224,2148560,0.17723416,-5.2188272,1.0035286,-9.47452,-4.174653,0.7440339,109
1776047935263,2149664,1.0873555,-8.205462,-4.90747,-9.208182,-1.7580702,0.14538592,109
1776047935302,2154543,2.0932791,-13.515302,-9.158695,3.4489453,0.9053023,-0.21746802,109
1776047935342,2159563,1.7699466,-5.3864813,-4.691915,5.254663,3.321885,0.46914452,109
1776047935383,2155883,2.8285613,-6.0738626,-0.70893663,3.1606169,5.2302284,0.39828414,109
1776047935426,2151845,1.9495758,-7.5132914,6.890577,3.8374555,4.0915756,-0.20158553,109
1776047935463,2155228,2.054958,-7.714476,8.581487,4.681671,3.1202996,-0.83199847,109
1776047935503,2153477,0.9987384,-4.5577917,14.279325,5.240002,0.3921755,-1.5711454,109
1776047935542,2148072,2.438167,3.6596458,16.41811,3.1899383,-0.70738196,0.61086524,109
1776047935582,2147011,4.7062855,5.281099,16.236086,-1.5735888,-2.8710666,2.0964894,109
1776047935624,2144173,2.3519452,0.6155294,9.544299,-3.6248744,-3.9376373,3.1264083,109
1776047935664,2147060,0.16525888,-4.083571,3.8033493,-11.69196,-3.9779544,1.0348058,109
1776047935703,2147245,-0.936467,-7.800698,-4.332657,-14.708413,-3.659083,0.17715092,109
1776047935742,2149986,3.3578687,-6.871416,-4.7996926,-12.286943,0.20647246,1.0213667,109
1776047935783,2157697,1.1280714,-9.673632,-13.718882,3.957185,1.0311406,0.8918633,109
1776047935822,2208842,1.0107137,-7.278576,-10.145458,8.289441,2.8722885,1.7849482,109
1776047935862,2209338,3.6404853,-5.3074446,-3.3866096,6.9284334,5.20335,1.7165314,109
1776047935901,2172364,2.507624,-9.992174,7.4821553,10.169684,4.034154,0.6010914,109
1776047935942,2257607,2.0262175,-9.532324,8.136005,7.072598,0.9456194,-2.3909266,109
1776047935982,2187907,5.2236176,2.6561172,14.387102,2.8857274,-0.8491027,1.4269812,109
1776047936022,2150422,3.9015465,4.952976,13.987128,-1.2253957,-2.5167649,1.6053538,109
1776047936062,2149814,2.941129,-0.8191092,9.740693,-3.7959166,-2.7684412,2.982244,109
1776047936103,2150017,0.6634306,-2.4429574,4.7877173,-8.588765,-2.9492574,1.9682078,109
1776047936142,2150978,-0.256271,-6.39001,-3.4201403,-13.792115,-2.8930578,1.1618657,109
1776047936182,2157304,0.7807883,-10.66279,-7.839019,-10.565525,-0.9859365,0.66950834,109
1776047936222,2160614,0.9867631,-12.643501,-11.477109,0.71837753,1.1166617,0.35796702,109
1776047936262,2166749,-1.659774,-8.53598,-8.959906,7.3059483,2.6645942,1.1239921,109
1776047936303,2165073,2.3351798,-8.473709,-2.2058468,7.7176714,4.750088,0.81122905,109
1776047936347,2160292,2.0310078,-9.927508,2.3639205,11.673635,2.8221974,-0.91874135,109
1776047936382,2158682,2.517204,-6.39959,7.324082,10.701138,0.82344633,-3.6004398,109
1776047936422,2149425,2.423797,1.5903172,7.671365,5.3169713,0.30665436,-0.6401868,109
1776047936462,2144786,5.6475425,19.744843,15.919938,-2.0280726,-1.2730432,1.65911,109
1776047936502,2148397,3.8656206,3.753053,10.966962,-3.853338,-2.2809708,2.9358184,109
1776047936542,2144183,2.6082163,0.01916045,6.1672697,-4.3493605,-2.1856759,3.6480873,109
1776047936582,2145299,0.8981461,-3.2285357,4.4907303,-12.581381,-2.2223277,2.0622811,109
1776047936621,2146396,-1.6980948,-10.789728,-7.6905255,-16.274672,-2.4984388,0.50823987,109
1776047936663,2152503,1.6262431,-10.614889,-9.290423,-10.773219,-0.45448375,0.73914695,109
1776047936702,2155994,0.20836988,-10.44484,-11.390887,3.5075881,1.9327776,1.3451253,109
1776047936743,2317285,-1.8370081,-7.240255,-11.553751,10.63272,2.0842721,1.0592403,109
1776047936783,2254717,4.6655693,-8.222228,-1.7220454,11.004127,4.9516735,0.5925393,109
1776047936822,2189392,0.9747879,-9.702373,6.265467,15.663807,1.4624114,-1.2718215,109
1776047936863,2163191,7.9899073,-2.0765138,5.1733212,12.651019,1.3744467,-3.1764994,109
1776047936902,2140177,0.68738115,10.44005,7.1061316,2.2992969,0.816116,1.1215485,109
1776047936942,2135179,0.469431,11.795651,12.389626,-7.474547,-2.1380284,2.3518312,109
1776047936995,2143299,2.3519452,0.3975793,7.3863535,-7.814188,-1.7959439,3.4660494,109
1776047937024,2143299,-0.0766418,-2.76629,7.7384267,-12.740206,-2.3787093,2.0476203,109
1776047937070,2148803,-2.3303897,-6.279837,-4.9170504,-16.737707,-3.304781,-0.4251622,109
1776047937107,2154078,0.023950562,-12.147725,-13.63745,-4.7659707,0.7648033,-0.12461651,109
1776047937155,2444919,5.1493707,-12.631526,-11.826787,3.5601227,2.0622811,0.24312437,109
1776047937193,2826619,-2.4573276,-6.643886,-9.81015,12.412782,2.9003882,0.6743952,109
1776047937222,2268487,1.6717492,-7.168403,-4.145842,13.700486,4.159992,-0.14660765,109
1776047937277,2164074,0.87898564,-6.7947745,4.306311,13.801889,0.62796944,-3.0750957,109
1776047937320,2150886,6.5864043,1.28375,9.944273,3.4208453,1.5845845,-1.5870279,109
1776047937372,2132660,2.438167,9.053312,10.27,-6.0781093,-2.2198844,2.0109684,109
1776047937387,2125092,2.438167,9.053312,10.27,-5.4843483,-1.921782,2.824641,109
1776047937427,2129398,3.5710287,-2.0262175,6.988774,-8.731708,-1.4416419,2.4764478,109
1776047937462,2142092,2.7567096,-2.898018,7.4007235,-12.899031,-2.0500638,2.0476203,109
1776047937502,2146070,-0.25387597,-6.789984,-4.8715444,-15.959465,-2.7501154,0.06963864,111
1776047937554,2149023,3.5710287,-11.623208,-11.71901,-5.892406,0.54000485,0.07941248,111
1776047937583,2151866,3.5710287,-11.623208,-11.71901,0.75991637,1.4892895,0.5864306,111
1776047937623,2582913,-1.8154526,-8.878473,-11.163357,10.685255,2.3420575,1.3402383,111
1776047937677,2830998,0.766418,-6.361269,-5.642752,12.2515135,4.836831,-0.17959438,111
1776047937702,2380862,4.6224585,-9.599385,2.9147835,14.362663,3.2143729,-1.2925909,111
1776047937742,2266352,2.174711,-3.5279179,5.918184,13.949718,0.8002335,-3.0579915,111
1776047937784,2152444,3.6859915,-1.6310333,3.7386827,5.761681,1.8118263,-1.8008307,111
1776047937823,2137184,4.7613716,29.81366,14.183523,-5.7494636,-1.2938126,1.2278391,111
1776047937863,2135724,4.165003,1.7531811,6.5337133,-5.7690115,-1.9657644,3.1105258,111
1776047937907,2136338,1.8944894,-0.71372676,7.3911433,-8.589987,-1.6945401,2.579073,111
1776047937942,2142343,0.17723416,-3.6309052,0.69696134,-15.89227,-3.1801646,0.516792,111
1776047937984,2146029,1.5927124,-10.442445,-9.290423,-13.961936,-2.8405235,0.08552113,111
1776047938023,2149684,4.610483,-12.897378,-10.056841,-2.6426032,0.71837753,0.08674286,111
1776047938064,2463659,-0.5029618,-9.381435,-11.295085,10.703581,2.189341,0.86498517,111
1776047938103,2589280,0.23950562,-5.937344,-5.918184,13.134825,2.7721064,0.70738196,111
1776047938143,2186090,3.7195222,-7.6617846,3.966213,15.037059,2.5045476,-1.6358972,111
1776047938183,2165673,3.971003,-0.6682207,7.427069,9.97543,1.0885619,-2.9578094,111
1776047938222,2152929,3.159079,0.48859146,5.633172,0.61208695,2.0610592,-1.2864822,111
1776047938262,2143461,1.4322436,19.41193,12.732119,-4.511851,-1.2290609,0.94806284,111
1776047938303,2145092,4.569767,1.2238737,9.323954,-3.2632422,-1.3475688,2.488665,111
1776047938380,2153447,0.9244917,-0.63468987,5.2164326,-14.115874,-2.483778,1.3365731,111
1776047938396,2154223,0.040715955,-8.49766,-5.7696905,-14.115874,-2.483778,1.3365731,111
1776047938426,2154223,0.040715955,-8.49766,-5.7696905,-13.928949,-2.5179865,0.09040806,111
1776047938467,2157703,1.748391,-9.2616825,-9.326349,-9.314473,-0.36774087,0.13561209,112
1776047938524,2564399,0.9604175,-12.899773,-10.873555,10.206337,2.0378466,0.9126327,112
1776047938562,3090981,-1.0442445,-7.285761,-8.052179,12.440882,2.64749,0.70616025,112
1776047938582,2849706,2.9914253,-6.524133,0.071851686,12.495859,3.6981783,0.032986723,112
1776047938623,2217244,0.73767734,-8.480894,5.190087,15.382809,0.77091193,-2.1917844,112
1776047938663,2164480,6.4690466,-2.1435752,8.926374,10.34317,1.3048081,-2.7818804,112
1776047938703,2142351,3.1183631,8.914399,10.492742,-0.3640757,1.110553,-0.05009095,112
1776047938753,2130035,0.91730654,9.877212,11.750146,-5.0237556,-1.8411479,2.5118778,112
1776047938782,2132639,3.4273255,-1.6885146,7.656995,-4.8588223,-1.2449434,2.5692992,112
1776047938822,2144585,2.7519195,-1.0155039,9.376645,-11.895989,-1.6102408,2.0696115,112
1776047938863,2150947,-0.5891838,-4.4116936,-0.49577662,-16.997936,-2.565634,-0.014660766,112
1776047938908,2154042,1.4561942,-8.559931,-8.284499,-7.0860367,0.29565877,0.23701571,112
1776047938943,2161876,3.6356952,-13.00276,-9.80536,0.48747048,1.319469,0.3848451,112
1776047938983,2482907,-1.0969357,-11.572911,-12.463872,12.657128,1.8839084,1.0641272,112
1776047939022,2542161,1.4873298,-5.3505554,-5.192482,13.568539,2.896723,0.32742378,112
1776047939062,2196965,1.5136755,-6.9959593,4.4212737,15.10181,0.95417154,-2.0341814,112
1776047939103,2185963,4.1889534,-0.5412827,9.115583,8.410393,0.8576548,-2.6487117,112
1776047939143,2170449,4.090756,5.8151965,10.25084,-0.7281514,0.7635816,-0.21868975,112
1776047939183,2159758,2.2034516,10.303532,12.205206,-4.87837,-1.7470746,1.6334536,112
1776047939224,2160224,3.1375237,-1.4585892,8.124031,-3.7250562,-1.5491543,2.3994787,112
1776047939271,2157488,3.1758444,-1.3100958,8.832967,-12.349252,-1.7763962,1.5247196,112
1776047939302,2155527,0.3975793,-3.326733,2.2010567,-14.895338,-2.172237,0.42149702,112
1776047939347,2155998,1.6046877,-8.583881,-8.159956,-9.929004,-0.080634214,0.77213365,112
1776047939384,2158108,4.591323,-16.406136,-7.204329,-1.8032742,2.5546384,1.1838568,112
1776047939424,2162978,-2.4788833,-11.577702,-11.410048,13.327858,1.4159856,0.6133087,112
1776047939462,2360635,2.1866863,-3.4848068,-1.9423906,13.197133,3.2522466,0.096516706,113
1776047939503,2182408,1.3268611,-5.458333,7.2210946,12.344365,1.0543534,-2.2724187,113
1776047939542,2184656,4.7949023,-0.011975281,8.981461,6.872234,1.1178834,-2.2418754,113
1776047939582,2178076,2.77108,5.2667284,11.196888,-0.784351,0.4886922,0.31398472,113
1776047939623,2170677,2.215427,9.151509,13.22071,-4.774523,-1.4929546,1.736079,113
1776047939663,2173891,2.8764625,-0.8598252,8.993436,-4.4275513,-1.2302825,2.888171,113
1776047939702,2159497,2.2776985,0.7927636,8.971881,-9.268047,-1.359786,2.4226916,113
1776047939742,2160288,-0.63229483,-5.1421857,-0.383209,-14.587462,-2.3457224,0.4972443,113
1776047939785,2160421,0.2179501,-11.649553,-6.3804297,-11.777482,-2.2553146,0.030543262,113
1776047939825,2162015,2.0956743,-13.601524,-9.127559,-3.9901717,-0.6719518,-0.66950834,113
1776047939862,2166656,1.1376517,-9.228151,-8.897634,4.1441097,0.8527679,0.15760323,113
1776047939902,2166540,-0.53409755,-7.9923024,-5.5756907,8.817229,1.9547688,0.32986724,113
1776047939945,2348386,2.2106369,-9.280843,-2.8381417,9.777509,3.281568,-0.11728613,113
1776047939983,2234529,2.7615,-9.019782,3.3051775,11.160508,2.7550023,-1.59558,113
1776047940024,2146667,1.4777497,-6.437911,6.864231,11.842234,1.2779301,-2.9590313,113
1776047940063,2136027,3.4105601,2.5507348,6.2870226,5.3597317,1.4428637,-2.0378466,113
1776047940103,2126048,0.32333258,17.292305,12.195626,-3.0934217,-0.4447099,0.39706242,113
1776047940143,2124558,2.6201916,4.227274,10.131087,-1.9449949,-1.065349,1.5882497,113
1776047940182,2125174,2.7974257,2.7375493,9.290423,-1.8057177,-1.1679744,2.5448647,113
1776047940222,2130622,2.0932791,2.512414,9.204201,-5.9217277,-1.6236799,3.2400293,113
1776047940262,2131958,-0.54607284,-4.394928,5.6954436,-12.104906,-2.2736404,1.9730947,113
1776047940303,2132628,-0.16765393,-8.694054,-0.82629436,-15.374256,-2.4666739,0.408058,113
1776047940344,2135045,2.1771061,-10.794518,-6.2822323,-12.928352,-1.1496484,-0.58032197,113
1776047940384,2136642,3.024956,-6.725318,-8.147981,-6.7891564,0.7367035,0.02076942,113
1776047940422,2135339,0.45266563,-8.449759,-11.872293,4.768414,0.73914695,0.9737192,113
1776047940464,2686159,2.2369826,-6.689392,-9.879607,8.869763,1.8374827,1.187522,0
1776047940503,2922857,3.6596458,-7.712081,-5.029618,10.206337,3.789808,0.5644395,0
1776047940544,3035172,2.1363902,-10.274791,3.408165,15.592946,2.9382617,-0.29077184,0
1776047940584,2987745,2.5914507,-3.578214,4.732631,17.144545,1.0995574,-3.0213394,0
1776047940624,2181141,3.6380904,2.6489322,4.9625564,4.0011673,2.175902,-1.781283,0
1776047940662,2147189,1.2238737,24.74572,14.106881,-7.6223764,-2.0158553,1.5931365,0
1776047940703,2144281,4.4452243,0.22274023,7.7168713,-2.9345965,-1.8118263,2.5485299,0
1776047940743,2152802,2.3567352,-1.2502193,8.77309,-2.4104743,-1.6114625,2.538756,0
1776047940782,2146261,2.2489579,-1.5472063,8.504845,-8.817229,-2.302962,2.3970351,0
1776047940823,2150505,-0.36165348,-8.083315,0.5867888,-12.363913,-2.6572638,0.79045963,0
1776047940865,2151840,2.1866863,-9.695188,-4.119497,-12.795183,-1.7116444,0.1441642,0
1776047940902,2155980,4.5290513,-7.834229,-4.90747,-8.52157,0.8503244,0.17837265,0
1776047940942,2156377,1.0969357,-10.495136,-10.202939,4.8612657,0.93951076,1.4844025,0
1776047940982,2417112,2.3064392,-8.864103,-9.072473,11.849564,2.1844542,1.0091494,0
1776047941024,2636013,4.617668,-5.597246,-0.63948,10.990687,4.02438,0.15393804,0
1776047941067,2182873,0.40715957,-8.042599,6.0187764,14.002254,0.8918633,-1.5222762,0
1776047941107,2180260,5.9996157,-2.2250073,6.560059,10.870958,1.6420058,-2.4043655,0
1776047941142,2167416,3.149499,6.595985,8.203068,1.287704,1.9498819,-0.04886922,0
1776047941182,2147730,0.8478499,10.519087,12.602786,-6.041457,-1.4758505,1.4624114,0
1776047941223,2147486,3.2261407,-3.9135218,7.68334,-2.8991663,-0.84665924,2.144137,0
1776047941262,2144522,2.2369826,-1.4969101,9.256892,-7.2143188,-1.0262536,2.048842,0
1776047941302,2139901,0.30177706,-5.005667,5.329,-11.453723,-1.9449949,0.9615019,0
1776047941343,2139503,1.1951331,-12.020787,-1.4154782,-10.837971,-1.6432275,0.24312437,0
1776047941384,2141071,2.6609075,-8.660523,-4.119497,-10.973583,-0.9627236,-0.31764993,0
1776047941425,2140952,2.5770805,-9.855657,-6.696577,-3.2950072,0.7648033,0.032986723,0
1776047941463,2140562,1.1903429,-11.275925,-10.813679,5.920506,1.2950343,0.0,0
1776047941503,2284302,2.3399699,-7.2809706,-6.809145,7.4317865,2.4507914,0.4654793,0
1776047941544,2182042,3.5949793,-9.913137,1.2933303,10.338284,3.3585372,-0.15393804,0
1776047941583,2205307,1.0586149,-8.871288,5.374506,13.833654,0.1685988,-2.1160371,0
1776047941625,2174350,6.2870226,-3.9781883,4.1554227,10.550864,0.75502944,-2.1685717,0
1776047941662,2147751,3.5255227,9.937088,9.925113,0.047647487,0.56199604,0.45570546,0
1776047941702,2139170,2.392661,5.2595434,10.614889,-5.1520376,-2.1013765,1.3707817,0
1776047941745,2140739,3.0872273,-4.342237,7.2737856,-2.125811,-1.59558,1.4037683,0
1776047941784,2137131,3.9374723,-1.1256764,7.870155,-3.7690387,-1.2522738,1.5613716,0
1776047941824,2131228,2.4357722,-3.712337,6.102603,-9.694431,-1.6432275,1.3634512,0
1776047941867,2130069,1.8825141,-9.271262,-0.23950562,-10.880732,-1.7617353,0.7367035,0
1776047941903,2131375,3.9039416,-9.386225,-2.4429574,-9.136101,-0.90285885,0.24923302,0
1776047941944,2132007,3.453671,-6.478627,-4.4931254,-6.1782913,-0.39095375,0.25778514,0
1776047941982,2131358,3.0920177,-8.409042,-8.018648,0.8173377,0.07819075,0.65118235,0
1776047942023,2132355,3.0824373,-8.476104,-7.9563766,6.197839,0.8332202,0.71593404,0
1776047942064,2323608,3.796164,-7.197144,-5.4535427,6.133087,1.9498819,0.91996306,0
1776047942107,2422458,3.626115,-7.326477,0.43350518,4.161214,2.9981265,0.8784242,0
1776047942143,2361435,2.476488,-10.727457,3.2955973,3.8997638,2.2015584,0.5375614,0
1776047942183,2298287,3.4057698,-10.21252,5.254753,3.4489453,1.6994271,-0.1441642,0
1776047942224,2174776,2.4884634,-8.600647,8.447363,2.157576,0.71593404,-0.6389651,0
1776047942263,2158912,2.852512,-6.473837,9.596991,0.7623598,-0.7098254,-0.59498274,0
1776047942305,2152486,3.2524862,-6.2055907,7.9970927,-0.17715092,-1.8533652,-0.46670106,0
1776047942342,2146340,3.0584867,-5.75053,6.823515,-1.4147639,-2.5411994,-0.032986723,0
1776047942382,2142557,3.7434728,-5.4750986,4.804483,-3.0653217,-2.9003882,0.24678956,0
1776047942422,2141687,3.2692516,-5.9133935,2.2441676,-4.170988,-2.6413813,0.28588495,0
1776047942464,2141961,2.258538,-8.708425,-2.2872787,-2.7672195,-2.0793853,0.119729586,0
1776047942502,2143752,2.2561429,-9.951459,-4.3829527,0.3640757,-1.0140363,-0.030543262,0
1776047942542,2144633,2.4980435,-7.498921,-3.5590534,1.1447614,0.18325958,0.26511553,0
1776047942582,2143784,2.859697,-8.655733,-4.8739395,1.6420058,2.0427334,0.3005457,0
1776047942622,2141741,2.6944382,-9.041337,-3.8919663,1.8460348,3.378085,0.29443705,0
1776047942662,2141452,3.0536966,-8.993436,0.42632002,1.5796975,4.5081854,0.18936823,0
1776047942702,2140518,0.68738115,-8.919189,5.7385545,1.4147639,3.7103956,-0.3286455,0
1776047942742,2139432,1.5927124,-10.749012,7.268996,1.3744467,2.4507914,-1.0543534,0
1776047942784,2136949,1.3220711,-6.890577,12.7608595,0.8185594,0.8344419,-0.9101892,0
1776047942825,2134291,2.1028593,-5.029618,12.291429,-0.18692477,-0.9272934,-0.6646214,0
1776047942863,2133667,2.1962664,-5.285889,10.452025,-0.44715336,-2.043955,-0.07819075,0
1776047942904,2131882,2.4525375,-5.5206046,8.607832,-0.4728097,-2.7867672,0.52290064,0
1776047942942,2130859,2.0741186,-5.7696905,7.0175147,-1.4990633,-3.3878586,0.80878556,0
1776047942983,2129835,2.4836733,-7.149243,3.8895712,-2.5778513,-4.0084977,0.6450737,0
1776047943023,2129879,2.8094008,-8.262944,-0.14130831,-2.8906143,-3.8789942,0.37384954,0
1776047943065,2130712,2.4525375,-10.425679,-4.126682,-1.4306464,-2.9810224,-0.11728613,0
1776047943102,2132756,2.8094008,-9.426941,-5.072729,-1.4880677,-1.998751,-0.3652974,0
1776047943143,2132756,2.8094008,-9.426941,-5.072729,-0.052534413,-0.6743952,-0.267559,0
1776047943184,2132224,2.423797,-8.215043,-7.930031,0.59620446,0.6230826,-0.010995574,0
1776047943224,2130192,3.8967564,-7.2186995,-7.331267,0.97127575,2.6841419,0.42638394,0
1776047943262,2130192,3.8967564,-7.2186995,-7.331267,1.0421361,3.9962804,0.5021312,0
1776047943302,2135081,2.6585124,-8.284499,-2.3136244,0.5852089,5.39394,0.73548174,0
1776047943342,2132011,0.6801959,-9.944273,4.0739903,0.096516706,4.918687,0.42271876,0
1776047943382,2132011,0.6801959,-9.944273,4.0739903,1.1582005,3.3475416,-0.21868975,0
1776047943423,2128967,1.5591816,-9.422151,3.6285102,0.6169739,2.4996605,-1.0800097,0
1776047943463,2123350,1.6573789,-9.034152,11.405257,0.8038987,0.48624873,-0.86132,0
1776047943503,2122428,2.7159936,-6.298998,10.65321,0.39461896,-1.2583824,-0.45448375,0
1776047943543,2121361,2.3160193,-5.6667027,9.704767,0.059864793,-2.5949554,0.095294975,0
1776047943583,2122254,2.8357465,-6.3325286,7.122897,-0.24678956,-3.530801,0.43860126,0
1776047943624,2122254,2.8357465,-6.3325286,7.122897,-1.2852604,-4.1990876,0.77579886,0
1776047943663,2121594,3.329128,-6.6367006,1.537626,-2.607173,-4.450764,0.5644395,0
1776047943703,2123173,2.1938715,-8.368326,-3.879991,-3.3060026,-3.9339721,0.059864793,0
1776047943743,2125211,1.3963177,-10.684345,-6.5983796,-2.2736404,-2.8136454,-0.44715336,0
1776047943782,2127502,2.0357978,-7.7456117,-6.7277126,-1.7201965,-1.3121386,-0.535118,0
1776047943823,2127020,0.4598508,-8.380301,-8.315635,0.9407325,-0.16493362,-0.32375857,0
1776047943862,2163102,3.6069546,-5.9133935,-9.357485,0.829555,1.5015068,0.25167647,0
1776047943904,2163102,3.6069546,-5.9133935,-9.357485,0.45937067,3.186273,0.7440339,0
1776047943942,2379365,2.476488,-7.288156,-5.410432,0.68416905,3.9217548,1.1178834,0
1776047943984,2525288,2.8022158,-8.421018,-3.0369313,0.8906415,4.9980993,1.2449434,0
1776047944022,2330413,1.2142935,-9.16588,0.8718004,-0.010995574,4.7207665,0.9761627,0
1776047944064,2161643,1.7076751,-11.314245,2.8022158,0.61819565,3.667635,0.54611355,0
1776047944103,2129492,2.1172297,-11.939355,7.506106,0.97127575,2.502104,-0.14538592,0
1776047944142,2123376,1.49212,-8.931165,9.57304,0.5839872,0.18081611,-0.39706242,0
1776047944183,2123376,1.49212,-8.931165,9.57304,0.6389651,-1.3573426,-0.14172074,0
1776047944226,2116569,2.4956486,-7.6426244,9.019782,-0.11484267,-2.6193902,0.17348573,0
1776047944263,2116141,2.3136244,-8.250969,5.6547275,-0.17592919,-3.6603045,0.039095376,0
1776047944304,2115937,2.4932535,-7.8174634,2.9602895,-0.83077675,-4.451986,0.16737708,0
1776047944345,2115801,2.2753034,-8.159956,-0.8813807,-2.4153612,-4.5851545,-0.18936823,0
1776047944384,2117320,1.7340207,-8.164746,-3.8991516,-3.3157766,-3.76293,-0.7147123,0
1776047944422,2120347,0.09580225,-8.51682,-7.8677597,-3.2107077,-2.2626448,-1.2681563,0
1776047944463,2120347,0.09580225,-8.51682,-7.8677597,-1.396438,-0.88086766,-0.74036866,0
1776047944504,2122580,0.8454548,-7.24265,-10.305926,-0.44959682,0.8258898,-0.41172317,0
1776047944542,2340444,2.1483655,-4.6871247,-10.107137,-0.312763,2.0830505,0.5009095,0
1776047944583,2631876,3.4393008,-5.144581,-8.504845,0.38240165,3.0445523,1.3622295,0
1776047944622,2888811,3.2548814,-6.1936154,-6.445096,0.8539896,4.3676863,2.1551325,0
1776047944662,2888811,3.2548814,-6.1936154,-6.445096,1.0629056,4.251622,2.2956316,0
1776047944704,2846762,2.7519195,-7.7719574,-2.4118216,1.2217305,3.5283577,1.7605137,0
1776047944743,2733708,2.9219685,-9.7167425,1.9878967,1.5577064,2.9248228,1.0897835,0
1776047944782,2138541,1.8585637,-11.271134,7.6066985,0.66339964,0.7489208,-0.042760566,0
1776047944822,2138541,1.8585637,-11.271134,7.6066985,0.63163465,-1.1960741,-0.5180137,0
1776047944864,2124725,3.2213507,-9.652077,5.336185,-0.1881465,-2.4825563,-0.56688297,0
1776047944904,2121518,4.009324,-9.127559,4.275175,-0.37873647,-3.545462,-0.75869465,0
1776047944943,2122110,3.9542377,-7.7336364,1.1783676,-0.7281514,-3.975511,-0.8356637,0
1776047944983,2122978,3.3866096,-7.518081,-1.5903172,-1.1691961,-3.9522982,-0.9309586,0
1776047945026,2122978,3.3866096,-7.518081,-1.5903172,0.7892379,-3.2510247,-0.8026769,0
1776047945061,2127664,0.4861964,-7.297736,-9.091633,0.26633725,-1.8521434,-0.6585127,0
1776047945107,2127664,0.4861964,-7.297736,-9.091633,-0.1441642,-0.096516706,0.17104226,0
1776047945143,2133882,1.5400212,-8.741955,-9.723928,1.7983873,1.5491543,0.312763,0
1776047945185,2133882,1.5400212,-8.741955,-9.723928,1.8423696,3.0775392,0.8368854,0
1776047945223,2460168,2.811796,-6.852256,-6.9696136,1.46852,4.147775,0.87109387,0
1776047945265,2198813,2.938734,-8.004278,-3.4632514,0.50335294,4.295604,1.0555751,0
1776047945304,2149028,2.8836477,-10.020915,5.1781116,1.7739527,2.910162,0.7244862,0
1776047945343,2131533,3.4656463,-10.796913,6.2822323,2.6450465,1.7079792,-0.46181414,0
1776047945382,2131533,3.4656463,-10.796913,6.2822323,0.8405506,-0.27977628,-0.02687807,0
1776047945422,2122182,3.0896225,-8.394672,9.762249,-0.643852,-2.0244074,-0.09896017,0
1776047945462,2117964,3.2309308,-6.3277383,8.746745,-0.96761054,-2.896723,0.22113322,0
1776047945502,2115469,3.6548557,-7.5516124,6.5432935,-1.7592919,-3.8655553,0.095294975,0
1776047945542,2116665,3.5398932,-7.4869456,4.0692005,-2.2626448,-3.649309,0.18570304,0
1776047945582,2120488,2.4573276,-10.44963,-4.864359,-1.1410962,-2.607173,-0.22968534,0
1776047945624,2120488,2.4573276,-10.44963,-4.864359,-1.1496484,-1.2241739,-0.26267207,0
1776047945665,2123032,1.6382184,-8.914399,-4.68473,-0.7770206,0.06841691,-0.24556783,0
1776047945702,2123475,0.52691233,-9.925113,-7.166008,0.5925393,1.1863003,-0.0012217305,0
1776047945742,2123475,0.52691233,-9.925113,-7.166008,0.94806284,2.5815165,0.27855456,0
1776047945785,2121937,2.308834,-8.143191,-6.2367263,0.79901177,3.7189476,0.6133087,0
1776047945823,2121182,2.5866606,-9.024571,0.29219687,0.3640757,3.7971385,0.8026769,0
1776047945862,2121040,3.0321412,-8.53598,3.2476962,0.5338962,3.177721,0.64751714,0
1776047945905,2121040,3.0321412,-8.53598,3.2476962,1.1972959,1.8973475,-0.18570304,0
1776047945943,2119032,3.4464858,-10.21252,7.326477,0.6927212,0.2125811,-0.6609562,0
1776047945982,2119032,3.4464858,-10.21252,7.326477,-0.08552113,-1.3793337,-0.31031954,0
1776047946022,2117973,3.8847811,-7.295341,7.082181,-0.47769663,-2.298075,-0.14172074,0
1776047946062,2115880,4.109916,-7.546822,5.544555,-0.46914452,-3.2155948,-0.12705997,0
1776047946102,2117772,4.100336,-7.9204507,4.057225,-0.09773844,-3.685961,-0.1001819,0
1776047946145,2119798,4.0739903,-7.968352,1.362787,-0.6780604,-3.2339206,0.16615535,0
1776047946184,2121338,3.283622,-8.167142,-1.8705388,-0.9297369,-2.3628268,-0.07452556,0
1776047946223,2127065,1.49212,-9.38862,-5.1469755,-0.8772025,-1.210735,-0.021991149,0
1776047946261,2127065,1.49212,-9.38862,-5.1469755,-0.013439035,0.4092797,-0.052534413,0
1776047946304,2128399,0.08143191,-9.946669,-5.199667,1.1472049,1.8399261,0.073303826,0
1776047946342,2128392,0.8191092,-10.131087,-7.453415,1.3439035,3.3438764,0.48502702,0
1776047946384,2126611,2.4477475,-7.8078833,-5.3170247,0.81245077,4.4067817,0.77213365,0
1776047946423,2125797,2.0357978,-8.579091,4.4452243,-0.10751228,3.911981,0.9981538,0
1776047946464,2125600,2.732759,-8.835362,4.9266305,1.0030408,1.9107865,0.058643065,0
1776047946502,2125600,2.732759,-8.835362,4.9266305,0.9859365,0.4202753,-0.33964106,0
1776047946543,2123935,2.641747,-11.92738,6.310973,0.2687807,-1.5735888,-0.37995818,0
1776047946583,2120799,2.941129,-8.377907,9.223361,-0.5864306,-2.823419,0.019547688,0
1776047946623,2120064,3.786584,-7.3480325,4.0715957,-1.4941764,-3.5613444,0.21380283,0
1776047946662,2120064,3.786584,-7.3480325,4.0715957,-1.187522,-4.138001,0.0,0
1776047946704,2121402,2.9243636,-8.409042,1.1328616,-1.0543534,-3.3011158,0.02321288,0
1776047946744,2126097,0.8718004,-9.297608,-4.720656,-1.9364429,-1.5760323,-0.21380283,0
1776047946782,2128810,-0.49577662,-10.140668,-6.3229485,-0.5681047,-0.79045963,-0.54733527,0
1776047946822,2128810,-0.49577662,-10.140668,-6.3229485,0.84299403,0.35185838,-0.44593164,0
1776047946864,2131054,0.58199865,-9.311978,-7.843809,0.78801614,2.1539109,-0.089186326,0
1776047946902,2131399,2.1363902,-7.764772,-6.823515,1.0726794,3.0482175,0.2443461,0
1776047946944,2131433,2.6273766,-7.9084754,-4.564977,0.5216789,3.7910297,0.5180137,0
1776047946982,2132322,3.496782,-8.07134,-1.6406134,0.23823744,3.6163223,0.81489426,0
1776047947022,2130991,3.0369313,-8.53119,1.8920944,0.8698721,2.3005185,0.48380527,0
1776047947062,2129862,4.126682,-9.707163,5.1278152,0.91874135,0.6963864,-0.20158553,0
1776047947103,2127793,4.25841,-11.604047,6.1193686,0.80878556,-0.9138544,-0.14782938,0
1776047947142,2125022,3.5686338,-8.51203,7.084576,-0.14172074,-2.375044,-0.16126843,0
1776047947184,2123962,3.5949793,-7.9827223,5.9828506,-0.98715824,-3.5283577,0.19792034,0
1776047947223,2123745,3.4872017,-7.1707983,4.509891,-0.92485,-3.4599407,0.312763,0
1776047947262,2124539,3.1063879,-7.8749447,0.50535685,0.54000485,-2.5815165,0.31764993,0
1776047947302,2125393,1.408293,-10.775358,-3.5997694,-0.70371675,-1.4318681,0.043982297,0
1776047947347,2127295,0.021555506,-8.921584,-2.98424,0.40194935,-0.3200934,-0.27488935,0
1776047947381,2128859,-1.1711825,-10.851999,-3.5231276,1.4648548,1.2632693,-0.44837508,0
1776047947422,2129731,1.3699721,-9.838891,-6.3684545,1.7739527,2.9162707,-0.14905111,0
1776047947463,2130114,3.1854248,-8.552746,-3.2189555,1.7299703,2.6633725,-0.25045475,0
1776047947502,2129569,2.301649,-8.509635,0.2898018,1.4966198,2.4654522,-0.25411993,0
1776047947542,2131168,4.6152735,-7.2713904,2.5339694,1.7605137,2.090381,-0.31642818,0
1776047947583,2130674,4.2081137,-8.686869,4.4140887,1.5149459,0.6939429,-0.40317106,0
1776047947623,2129785,3.7147322,-8.70124,7.336057,1.46852,-0.6927212,-0.09285152,0
1776047947663,2129878,3.6189299,-6.4235406,9.467657,-0.015882496,-1.1814134,0.7110472,0
1776047947704,2128302,3.365054,-4.960161,8.399462,-0.7855727,-1.6053538,1.2021828,0
1776047947742,2127506,1.7172552,-5.9157887,6.2055907,0.44226643,-1.9388863,1.1704178,0
1776047947782,2127469,1.106516,-8.51682,4.756582,1.7018706,-1.6554449,0.95417154,0
1776047947824,2128731,1.3843424,-10.722667,3.3434985,1.8521434,-1.5980235,0.56077427,0
1776047947862,2128610,2.5914507,-9.831706,4.1147065,1.5210545,-1.105666,0.37140608,0
1776047947902,2127383,3.2165604,-9.307188,2.3950562,0.752586,-0.21868975,0.23335053,0
1776047947944,2127012,3.4416957,-8.837757,2.2369826,0.77091193,0.6585127,0.04153884,0
1776047947982,2128913,3.5015721,-7.5635877,4.260805,0.6719518,1.0800097,-0.04886922,0
1776047948024,2128913,3.5015721,-7.5635877,4.260805,0.7819075,0.893085,-0.0720821,0
1776047948063,2130281,3.1207583,-8.500054,7.489341,2.1905627,0.9859365,0.267559,0
1776047948102,2130281,3.1207583,-8.500054,7.489341,1.2095132,0.4007276,-0.29810223,0
1776047948142,2131016,0.94125706,-5.726579,7.66897,0.7305948,0.14294247,-0.49846604,0
1776047948183,2131002,1.4729595,-5.836752,7.748007,-0.13072516,-0.15515977,-0.3921755,0
1776047948222,2133290,2.2705133,-4.802088,7.894105,-0.18203785,-0.13927728,-0.11728613,0
1776047948262,2135528,2.8381417,-5.719394,7.4318595,-0.39584067,-0.16493362,0.010995574,0
1776047948309,2134665,2.6345618,-6.2966027,6.9648232,-0.3042109,-0.103847094,0.019547688,0
1776047948342,2134665,2.6345618,-6.2966027,6.9648232,-0.1685988,-0.02076942,0.019547688,0
1776047948382,2133548,2.7471294,-6.2942076,6.900157,-0.15027285,0.02443461,-0.02321288,0
1776047948422,2132672,2.6058211,-6.5504785,6.943268,-0.16371189,0.039095376,-0.061086524,0
1776047948465,2132087,2.5651052,-6.3133683,6.5816145,-0.2724459,0.034208454,-0.06719518,0
1776047948502,2132179,2.5004387,-6.188825,6.9648232,-0.39095375,0.04153884,-0.057421334,0
1776047948543,2132583,2.5291793,-6.4618616,6.902552,-0.37384954,0.05497787,0.002443461,0
1776047948588,2133329,2.5842657,-6.6271205,6.651071,-0.1563815,0.035430185,-0.0012217305,0
1776047948622,2134012,2.7159936,-6.7995644,6.5073676,-0.09773844,0.047647487,0.02076942,0
1776047948663,2134698,2.601031,-6.7085524,6.62233,-0.27000242,0.009773844,0.103847094,0
1776047948702,2135110,2.476488,-6.5528736,6.7157373,-0.41050145,0.02443461,0.112399206,0
1776047948742,2135298,2.55792,-6.560059,6.512158,-0.4092797,-0.14660765,0.05009095,0
1776047948784,2135572,2.2561429,-6.993564,6.7277126,-0.33353242,-0.032986723,0.02565634,0
1776047948829,2135445,2.5890558,-7.1779833,6.0690722,0.06963864,0.05497787,0.0036651916,0
1776047948862,2135194,2.6321669,-7.6881304,5.839147,0.21013765,0.081855945,-0.0061086523,0
1776047948902,2135479,2.55792,-7.2258844,6.140924,0.07696902,0.02321288,-0.021991149,0
1776047948942,2135690,2.383081,-6.880996,6.3804297,0.010995574,-0.0036651916,-0.017104227,0
1776047948983,2135411,2.4501424,-6.936083,6.3732443,0.007330383,0.008552114,-0.021991149,0
1776047949023,2134771,2.4932535,-7.046255,6.2942076,0.0,0.0061086523,-0.028099801,0
1776047949062,2133869,2.514809,-7.0055394,6.349294,-0.028099801,-0.002443461,-0.010995574,0
1776047949102,2132619,2.4788833,-7.0223045,6.361269,-0.040317107,-0.0061086523,-0.007330383,0
1776047949143,2132507,2.4166117,-7.02949,6.308578,-0.019547688,-0.010995574,-0.018325957,0
1776047949184,2132222,2.56271,-7.0917616,6.260677,0.0061086523,0.0012217305,-0.009773844,0
1776047949224,2131922,2.512414,-7.1516376,6.2487016,0.015882496,0.0012217305,-0.012217305,0
1776047949263,2131604,2.4956486,-7.082181,6.3253436,0.02321288,-0.010995574,-0.037873644,0
1776047949302,2131518,2.4788833,-7.0486503,6.260677,0.012217305,-0.0036651916,-0.018325957,0
1776047949343,2131663,2.603426,-6.981589,6.3037877,-0.007330383,0.002443461,-0.004886922,0
1776047949382,2131923,2.4956486,-7.03428,6.3421087,0.008552114,0.0036651916,-0.0036651916,0
1776047949424,2132216,2.5435498,-7.01991,6.260677,0.009773844,-0.0012217305,-0.008552114,0
1776047949464,2132627,2.5363646,-7.027095,6.308578,-0.0012217305,0.008552114,-0.010995574,0
1776047949502,2133097,2.4788833,-7.0103292,6.224751,0.014660766,0.008552114,-0.015882496,0
1776047949545,2133343,2.5722904,-7.0486503,6.267862,0.004886922,0.0012217305,-0.009773844,0
1776047949584,2132898,2.5507348,-7.046255,6.356479,0.004886922,-0.004886922,-0.014660766,0
1776047949622,2131904,2.5435498,-6.9744034,6.3277383,0.0012217305,0.002443461,-0.0012217305,0
1776047949663,2130869,2.5746853,-7.0055394,6.3708496,-0.002443461,-0.0036651916,-0.0061086523,0
1776047949705,2130109,2.517204,-7.036675,6.310973,0.004886922,-0.0036651916,-0.0061086523,0
1776047949742,2129625,2.5363646,-7.02949,6.3301334,-0.0036651916,-0.002443461,-0.0061086523,0
1776047949783,2129514,2.5603151,-6.948058,6.3660593,0.0061086523,0.0,-0.010995574,0
1776047949824,2129417,2.5818706,-6.983984,6.310973,-0.0036651916,-0.009773844,-0.014660766,0
1776047949863,2129303,2.5794754,-6.9744034,6.3421087,-0.0061086523,-0.0036651916,-0.0036651916,0
1776047949904,2129244,2.5363646,-7.03907,6.344504,0.009773844,-0.0036651916,-0.0061086523,0
1776047949941,2129448,2.5411546,-7.084576,6.3037877,0.007330383,-0.004886922,-0.004886922,0
1776047949984,2129686,2.5315745,-7.0175147,6.3253436,-0.008552114,-0.0012217305,-0.0012217305,0
1776047950025,2130134,2.6393518,-6.9648232,6.3133683,-0.012217305,-0.008552114,-0.0061086523,0
1776047950062,2130619,2.55313,-6.9408727,6.3397136,-0.008552114,-0.007330383,-0.0061086523,0
1776047950103,2131184,2.598636,-6.998354,6.2966027,-0.004886922,-0.012217305,-0.014660766,0
1776047950143,2131833,2.5603151,-7.0558357,6.3684545,0.0036651916,-0.002443461,0.0012217305,0
1776047950182,2131806,2.5387595,-6.988774,6.2942076,0.004886922,-0.0012217305,0.0012217305,0
1776047950223,2130929,2.4956486,-7.01991,6.2966027,-0.002443461,0.0,0.002443461,0
1776047950263,2129903,2.5746853,-6.897762,6.3253436,-0.004886922,0.0,0.004886922,0
1776047950302,2129039,2.6585124,-7.0079346,6.310973,0.0036651916,0.0012217305,0.0036651916,0
1776047950343,2128318,2.555525,-6.9504533,6.308578,-0.009773844,0.0,0.0061086523,0
1776047950381,2128057,2.598636,-7.0246997,6.2942076,-0.002443461,0.002443461,0.007330383,0
1776047950423,2127859,2.5507348,-6.9959593,6.3397136,-0.002443461,0.0061086523,0.0061086523,0
1776047950462,2127561,2.5746853,-6.983984,6.3660593,-0.007330383,0.004886922,0.008552114,0
1776047950503,2127522,2.6201916,-7.027095,6.3037877,0.0061086523,0.004886922,0.008552114,0
1776047950543,2127512,2.6321669,-7.0055394,6.3301334,0.0,0.0036651916,0.0061086523,0
1776047950584,2127800,2.5842657,-6.988774,6.3708496,-0.0036651916,0.0012217305,0.008552114,0
1776047950623,2128085,2.6058211,-6.945663,6.3277383,0.0036651916,0.007330383,0.008552114,0
1776047950663,2128530,2.5794754,-6.9288974,6.447491,-0.010995574,0.0,0.004886922,0
1776047950702,2129003,2.6130064,-7.000749,6.354084,-0.004886922,0.002443461,0.007330383,0
1776047950744,2129596,2.5651052,-6.9696136,6.3684545,-0.002443461,0.0036651916,0.008552114,0
1776047950783,2130065,2.5794754,-6.952848,6.351689,0.0036651916,0.002443461,0.0061086523,0
1776047950825,2129727,2.5603151,-6.907342,6.3301334,-0.010995574,0.0,0.007330383,0
1776047950862,2128797,2.5890558,-6.9504533,6.3421087,-0.007330383,0.0036651916,0.007330383,0
1776047950907,2127836,2.55792,-7.0127244,6.3421087,-0.0012217305,0.0012217305,0.004886922,0
1776047950943,2127154,2.5339694,-7.0055394,6.382825,-0.004886922,0.002443461,0.007330383,0
1776047950984,2126597,2.6345618,-6.991169,6.3253436,-0.0061086523,0.002443461,0.008552114,0
1776047951024,2126435,2.5339694,-7.000749,6.344504,-0.0012217305,0.002443461,0.007330383,0
1776047951062,2126345,2.6441422,-6.988774,6.318158,-0.002443461,0.002443461,0.0061086523,0
1776047951102,2126217,2.692043,-6.9504533,6.349294,-0.0036651916,0.0036651916,0.008552114,0
1776047951143,2126266,2.598636,-6.9600334,6.3756394,0.0012217305,0.002443461,0.0061086523,0
1776047951182,2126339,2.5866606,-6.991169,6.351689,-0.0036651916,0.0012217305,0.0061086523,0
1776047951221,2126609,2.5267842,-6.9863787,6.3325286,-0.004886922,0.002443461,0.0061086523,0
1776047951264,2127096,2.6177964,-7.0031443,6.318158,0.008552114,0.002443461,0.0,0
1776047951303,2127593,2.6106112,-6.936083,6.3948,-0.004886922,-0.007330383,-0.007330383,0
1776047951344,2128261,2.5675,-6.955243,6.3349237,0.008552114,-0.013439035,-0.02076942,0
1776047951382,2128865,2.6249816,-6.9288974,6.308578,0.007330383,0.0,-0.0012217305,0
1776047951423,2129534,2.5675,-6.9600334,6.3205533,0.0061086523,-0.0012217305,-0.002443461,0
1776047951462,2129389,2.5722904,-7.0103292,6.3732443,-0.0012217305,-0.002443461,-0.0012217305,0
1776047951504,2128700,2.5842657,-7.0127244,6.3397136,-0.002443461,0.0012217305,-0.0012217305,0
1776047951543,2127997,2.6297717,-6.9959593,6.3756394,0.0061086523,0.0012217305,-0.0036651916,0
1776047951583,2127422,2.5842657,-6.904947,6.361269,0.010995574,0.0061086523,-0.007330383,0
1776047951624,2127137,2.6992283,-7.0702057,6.3349237,-0.009773844,0.0012217305,0.0,0
1776047951663,2127088,2.5603151,-6.9241076,6.354084,0.0012217305,0.0036651916,0.0012217305,0
1776047951702,2127061,2.4980435,-6.9648232,6.3660593,0.002443461,0.004886922,0.0012217305,0
1776047951742,2127149,2.596241,-6.9959593,6.382825,0.004886922,0.004886922,0.0,0
1776047951781,2127295,2.5938458,-6.9408727,6.3780346,0.0036651916,0.0012217305,0.0,0
1776047951823,2127574,2.55792,-6.9193172,6.4259357,-0.007330383,0.0,0.0012217305,0
1776047951863,2127978,2.6177964,-6.993564,6.3684545,0.007330383,0.002443461,0.0,0
1776047951903,2128545,2.6058211,-6.907342,6.382825,0.004886922,0.0036651916,-0.0036651916,0
1776047951943,2129291,2.598636,-6.936083,6.3277383,-0.007330383,0.002443461,0.0012217305,0
1776047951982,2129959,2.5722904,-6.9696136,6.428331,-0.007330383,-0.002443461,0.0,0
1776047952025,2130746,2.6058211,-6.988774,6.310973,0.0012217305,0.0012217305,0.0012217305,0
1776047952063,2131483,2.6680925,-6.9863787,6.4139605,-0.007330383,-0.002443461,0.0,0
1776047952103,2132035,2.56271,-6.9696136,6.3588743,0.0,-0.0012217305,0.002443461,0
1776047952143,2131784,2.5339694,-6.909737,6.3804297,-0.012217305,0.0,0.002443461,0
1776047952182,2131270,2.5794754,-6.948058,6.3660593,-0.007330383,0.002443461,0.002443461,0
1776047952222,2130906,2.5339694,-6.955243,6.349294,0.0012217305,-0.0012217305,-0.002443461,0
1776047952263,2130685,2.5866606,-6.9408727,6.39001,-0.0012217305,0.0012217305,0.002443461,0
1776047952305,2130706,2.4932535,-6.9336877,6.363664,-0.010995574,-0.002443461,0.0012217305,0
1776047952343,2130822,2.5794754,-6.9241076,6.3660593,-0.002443461,-0.002443461,0.0012217305,0
1776047952383,2130929,2.5890558,-7.0031443,6.3588743,-0.007330383,-0.002443461,0.0012217305,0
1776047952422,2131194,2.5914507,-6.981589,6.3349237,-0.0012217305,0.0,0.0,0
1776047952462,2131515,2.603426,-7.000749,6.4211454,-0.002443461,-0.0036651916,-0.0012217305,0
1776047952505,2131964,2.646537,-6.9408727,6.3421087,-0.0061086523,-0.0036651916,0.0,0
1776047952542,2132580,2.4836733,-6.983984,6.382825,0.004886922,0.0012217305,-0.0012217305,0
1776047952582,2133175,2.6154013,-7.031885,6.3756394,-0.0012217305,-0.0012217305,0.0,0
1776047952624,2133953,2.5914507,-6.948058,6.3660593,-0.0012217305,-0.0036651916,-0.0012217305,0
1776047952666,2134747,2.6082163,-6.988774,6.3325286,0.013439035,-0.0012217305,-0.0012217305,0
1776047952702,2135577,2.603426,-6.9600334,6.3732443,0.002443461,-0.004886922,-0.0012217305,0
1776047952742,2136331,2.5794754,-6.9504533,6.3876147,0.0036651916,-0.004886922,-0.0012217305,0
1776047952782,2136351,2.6249816,-6.983984,6.363664,-0.002443461,-0.004886922,0.0,0
1776047952825,2135984,2.55792,-6.938478,6.3708496,-0.004886922,-0.0036651916,0.002443461,0
1776047952863,2135615,2.596241,-6.952848,6.3588743,0.0061086523,-0.0061086523,-0.0012217305,0
1776047952902,2135577,2.598636,-6.983984,6.318158,0.0012217305,-0.002443461,0.0012217305,0
1776047952944,2135658,2.6201916,-7.0127244,6.39001,0.007330383,-0.002443461,-0.0036651916,0
1776047952982,2135998,2.6297717,-6.9863787,6.337319,0.0061086523,-0.0036651916,-0.004886922,0
1776047953023,2136221,2.641747,-6.9576383,6.356479,0.0036651916,-0.015882496,-0.02687807,0
1776047953063,2136541,2.6393518,-6.9576383,6.349294,0.0036651916,0.0012217305,0.002443461,0
1776047953104,2137013,2.5722904,-6.9696136,6.356479,0.002443461,-0.0012217305,0.0,0
1776047953143,2137510,2.5603151,-6.943268,6.39001,0.004886922,0.0,-0.0012217305,0
1776047953183,2138213,2.603426,-6.943268,6.4067755,0.0,-0.0012217305,-0.0012217305,0
1776047953221,2138852,2.6968334,-6.9791937,6.397195,-0.002443461,0.0,0.0012217305,0
1776047953262,2139581,2.6082163,-6.998354,6.351689,-0.007330383,-0.0036651916,0.0,0
1776047953304,2140476,2.6249816,-6.9672184,6.3421087,0.007330383,-0.0012217305,0.0012217305,0
1776047953342,2141244,2.603426,-6.9696136,6.3708496,0.004886922,-0.0036651916,-0.0012217305,0
1776047953384,2141928,2.5746853,-6.9720087,6.3253436,0.004886922,-0.0036651916,0.0012217305,0
1776047953423,2142028,2.6297717,-6.9312925,6.3660593,-0.004886922,-0.004886922,0.0012217305,0
1776047953463,2141717,2.6106112,-7.0175147,6.3684545,0.004886922,0.002443461,0.0012217305,0
1776047953502,2141287,2.5866606,-6.9241076,6.301393,-0.0036651916,-0.002443461,0.0012217305,0
1776047953543,2141051,2.6225865,-6.9600334,6.39959,-0.0012217305,-0.0012217305,0.002443461,0
1776047953583,2141068,2.5890558,-6.9145274,6.392405,0.0036651916,-0.0012217305,0.0,0
1776047953623,2141194,2.6154013,-6.9121323,6.3325286,-0.004886922,-0.0036651916,0.0012217305,0
1776047953664,2141324,2.601031,-6.904947,6.3205533,-0.002443461,-0.0012217305,0.0,0
1776047953702,2141500,2.6345618,-6.981589,6.392405,0.004886922,0.0012217305,-0.0012217305,0
1776047953744,2141780,2.603426,-6.936083,6.3948,-0.004886922,-0.002443461,0.0,0
1776047953781,2142142,2.6537223,-6.9241076,6.351689,-0.0036651916,-0.0036651916,0.0012217305,0
1776047953822,2142514,2.6441422,-6.9504533,6.3708496,0.004886922,-0.0012217305,0.0,0
1776047953863,2143086,2.6154013,-6.9576383,6.4211454,0.0061086523,0.0036651916,0.0012217305,0
1776047953903,2143690,2.6585124,-6.938478,6.3325286,-0.009773844,-0.004886922,0.0,0
1776047953942,2144272,2.6896482,-6.909737,6.3756394,-0.0036651916,-0.0036651916,0.0,0
1776047953983,2145047,2.6944382,-7.027095,6.351689,0.004886922,0.0012217305,0.002443461,0
1776047954023,2145758,2.6058211,-6.9863787,6.3876147,0.008552114,-0.0012217305,-0.0012217305,0
1776047954062,2146316,2.6537223,-6.907342,6.3588743,0.0012217305,-0.0012217305,0.0012217305,0
1776047954104,2146293,2.646537,-6.9241076,6.392405,-0.0036651916,0.002443461,0.0012217305,0
1776047954143,2145772,2.6273766,-6.9959593,6.3684545,0.0036651916,0.004886922,0.002443461,0
1776047954183,2145247,2.6297717,-6.916922,6.337319,0.0012217305,0.0012217305,0.0,0
1776047954225,2144852,2.5603151,-7.01991,6.430726,-0.0012217305,0.0012217305,0.0,0
1776047954262,2144706,2.6082163,-6.9336877,6.3708496,0.0012217305,0.0012217305,0.0,0
1776047954302,2144637,2.6154013,-7.0055394,6.3588743,-0.0036651916,0.0,-0.0012217305,0
1776047954343,2144672,2.6225865,-6.9791937,6.4043803,0.0012217305,0.0012217305,0.0,0
1776047954384,2144668,2.6106112,-6.900157,6.363664,0.002443461,0.0,0.0,0
1776047954424,2144691,2.6297717,-6.9288974,6.3780346,-0.0036651916,-0.0012217305,-0.0012217305,0
1776047954465,2144852,2.5267842,-6.9959593,6.3708496,-0.0036651916,-0.0012217305,0.0012217305,0
1776047954505,2145101,2.6154013,-6.9121323,6.3708496,0.0012217305,0.0012217305,0.0012217305,0
1776047954546,2145493,2.5651052,-6.861836,6.4139605,-0.0061086523,0.004886922,-0.013439035,0
1776047954582,2145947,2.6968334,-7.03428,6.3205533,-0.0061086523,0.002443461,0.0,0
1776047954622,2146406,2.5651052,-6.8307004,6.401985,-0.009773844,-0.004886922,0.0012217305,0
1776047954662,2146890,2.6704876,-6.9791937,6.354084,0.009773844,0.0036651916,0.0012217305,0
1776047954702,2147375,2.5842657,-6.983984,6.4139605,0.0,-0.0012217305,0.0,0
1776047954742,2147858,2.601031,-6.9408727,6.392405,0.0012217305,0.0,0.0012217305,0
1776047954783,2147754,2.6082163,-6.9744034,6.3948,-0.007330383,0.0,0.0012217305,0
1776047954825,2147096,2.598636,-6.993564,6.3852196,0.002443461,0.0012217305,0.0012217305,0
1776047954862,2146420,2.6177964,-6.9121323,6.363664,-0.007330383,-0.002443461,-0.0012217305,0
1776047954903,2145709,2.6345618,-6.945663,6.349294,-0.0036651916,0.0,0.0012217305,0
1776047954943,2145324,2.6273766,-6.9959593,6.3588743,0.0012217305,0.0012217305,0.0,0
1776047954986,2145062,2.6489322,-6.9504533,6.4115653,-0.007330383,0.0,0.0,0
1776047955022,2144912,2.6058211,-6.904947,6.40917,0.0012217305,0.0012217305,0.0012217305,0
1776047955062,2144768,2.555525,-6.9576383,6.306183,0.0012217305,0.0012217305,0.0012217305,0
1776047955102,2144533,2.6106112,-6.902552,6.3708496,-0.0061086523,-0.0012217305,0.0012217305,0
1776047955142,2144477,2.5914507,-6.902552,6.39001,0.0,0.002443461,0.0012217305,0
1776047955183,2144608,2.6273766,-6.9504533,6.3349237,0.0061086523,0.002443461,0.0,0
1776047955223,2144845,2.6154013,-6.948058,6.392405,0.002443461,0.0012217305,0.0,0
1776047955262,2145440,2.6321669,-6.9959593,6.430726,-0.002443461,0.0012217305,0.0012217305,0
1776047955302,2145774,2.6321669,-6.9265027,6.354084,0.0012217305,-0.002443461,-0.0036651916,0
1776047955343,2146266,2.6177964,-6.871416,6.298998,0.03176499,-0.021991149,-0.02687807,0
1776047955383,2146677,2.7088087,-7.0031443,6.39001,-0.0036651916,0.0061086523,-0.0061086523,0
1776047955421,2146810,2.6609075,-6.9504533,6.344504,0.004886922,0.007330383,-0.0012217305,0
1776047955463,2146023,2.6154013,-6.861836,6.478627,-0.014660766,0.0,0.002443461,0
1776047955501,2145077,2.6106112,-6.904947,6.3421087,-0.0012217305,0.0061086523,0.002443461,0
1776047955548,2144107,2.5746853,-6.9791937,6.401985,-0.008552114,-0.002443461,0.0012217305,0
1776047955582,2143442,2.6058211,-6.936083,6.3732443,-0.013439035,-0.0012217305,0.0036651916,0
1776047955624,2142896,2.6537223,-6.9408727,6.401985,-0.004886922,0.0,0.002443461,0
1776047955663,2142571,2.5675,-6.955243,6.39959,-0.04642576,-0.015882496,0.017104227,0
1776047955705,2142183,2.596241,-6.948058,6.4522815,-0.13561209,0.015882496,0.05375614,0
1776047955741,2141813,2.636957,-7.1372676,6.691787,-0.46303585,-0.062308256,0.047647487,0
1776047955783,2141563,2.0477731,-8.545561,7.4486246,-1.0690142,-0.28955013,-0.59986967,0
1776047955822,2141435,2.821376,-9.858051,6.2367263,-1.0152581,-0.5888741,-1.3610078,0
1776047955863,2140894,2.471698,-9.841286,5.3816915,-2.5350907,-0.47891834,-1.9156734,0
1776047955902,2140608,3.5518684,-9.934693,4.7709517,-3.7323866,-0.34330627,-2.7537806,0
1776047955942,2142484,4.0739903,-10.267606,3.1974,-3.8179078,0.5021312,-3.0250046,0
1776047955984,2144116,5.4008517,-9.973014,1.6094778,-5.105612,1.1691961,-3.0445523,0
1776047956024,2145068,6.5911946,-7.925241,0.5867888,-5.5246654,2.3176227,-2.8612928,0
1776047956062,2146101,7.156428,-7.6977105,-0.27303642,-5.4122663,3.0433307,-2.1025982,0
1776047956105,2146191,7.379168,-4.9457912,0.3975793,-5.341406,3.2485814,-1.2779301,0
1776047956143,2144348,6.938478,-4.9290257,-0.08622202,-5.0604076,3.386637,-0.35796702,0
1776047956184,2142118,7.130082,-4.517076,0.07424674,-3.8362339,3.164282,0.10995574,0
1776047956224,2140990,6.5361085,-5.448753,0.8334795,-2.1820107,2.4984388,0.118507855,0
1776047956263,2154617,6.4714417,-5.7026286,1.6118728,-1.7287487,1.9022343,-0.028099801,0
1776047956303,2168457,6.3301334,-5.403247,1.8010823,-1.1850786,1.3023647,-0.062308256,0
1776047956342,2202754,6.0379367,-6.1289487,1.616663,-0.3200934,0.7476991,-0.16249016,0
1776047956383,2228661,6.39001,-5.6379623,1.3244661,-0.05131268,0.32620203,-0.22968534,0
1776047956424,2244721,7.1085267,-5.4080367,1.872934,-0.14905111,0.112399206,-0.21135938,0
1776047956464,2267213,7.834229,-5.403247,1.5040953,-0.11362094,0.09285152,-0.17104226,0
1776047956503,2286953,8.624598,-5.005667,0.85264003,-0.204029,0.10751228,-0.09040806,0
1776047956544,2302414,7.9755373,-5.067939,1.6789343,-0.17592919,-0.02687807,0.012217305,0
1776047956582,2328950,8.368326,-4.981717,0.8430598,-0.2687807,0.017104227,0.08552113,0
1776047956622,2327717,8.265339,-4.6631746,1.4442189,-0.30298916,-0.02687807,0.11484267,0
1776047956665,2335543,8.397067,-5.154161,0.9460472,-0.32986724,0.034208454,0.105068825,0
1776047956703,2336111,8.260549,-5.273914,0.7424674,-0.14782938,0.052534413,0.05009095,0
1776047956742,2330305,8.387486,-5.2643337,0.81431913,-0.1881465,0.0842994,0.07086037,0
1776047956783,2328166,8.145586,-5.0080624,1.0418495,-0.19058995,0.013439035,0.17104226,0
1776047956822,2317850,8.432993,-4.814063,0.8813807,-0.42394048,0.08674286,0.19425514,0
1776047956863,2312633,7.9060802,-5.6451473,1.0442445,-0.15271631,-0.032986723,0.0,0
1776047956902,2307096,7.8270435,-6.5361085,0.42392495,0.22724187,-0.043982297,-0.17715092,0
1776047956944,2295046,8.001883,-6.2127757,0.20118472,0.32742378,-0.06841691,-0.20158553,0
1776047956987,2276208,8.066549,-4.847594,0.8861708,0.19547687,-0.062308256,-0.18692477,0
1776047957022,2281690,8.519215,-5.0966797,0.73528224,0.31764993,-0.017104227,-0.22235495,0
1776047957063,2282920,8.356351,-5.245173,1.0777752,0.22113322,-0.04520403,-0.2003638,0
1776047957103,2280389,8.406648,-4.5817423,1.3196759,0.10873401,-0.119729586,-0.1563815,0
1776047957142,2272877,8.200672,-4.8811245,1.0155039,0.05497787,-0.18081611,-0.14905111,0
1776047957183,2265588,8.315635,-4.69431,1.2166885,0.105068825,-0.2846632,-0.25167647,0
1776047957222,2257092,7.7887225,-5.6954436,1.4394288,0.267559,-0.50946164,-0.3213151,0
1776047957262,2259451,7.371983,-5.300259,1.4514041,0.44104472,-0.77091193,-0.4129449,0
1776047957304,2247890,7.5779576,-5.578086,1.7004899,0.9370673,-1.1948525,-0.51923543,0
1776047957345,2236950,6.2942076,-5.6954436,2.5698953,1.8912388,-2.107485,-0.61086524,0
1776047957382,2232024,6.17206,-5.6475425,2.4094265,4.053702,-2.8747318,-0.5143485,0
1776047957422,2194234,6.18164,-5.7840605,1.3077006,8.355414,-3.9009855,0.40317106,0
1776047957462,2175641,6.560059,-5.74574,-1.8322179,8.791573,-3.5906658,1.6114625,0
1776047957505,2169160,8.315635,-2.1531556,-3.4273255,5.3633966,-2.0048597,3.1850514,0
1776047957544,2164902,9.077263,-1.9352055,-1.1184913,4.2491784,-0.7464773,3.4208453,0
1776047957584,2167098,6.7133427,-8.401857,1.3771573,4.9858823,-1.2730432,3.082426,0
1776047957626,2167959,7.027095,-7.2546253,2.1124396,5.347514,-0.26267207,2.543643,0
1776047957662,2164264,3.9853735,-12.439921,2.253748,5.362175,0.5021312,2.3225098,0
1776047957703,2160929,4.7613716,-7.8462043,4.6320386,3.314555,0.9969321,1.7788396,0
1776047957743,2157479,3.3482885,-7.767167,6.854651,0.065973446,0.71837753,1.3402383,0
1776047957783,2159396,2.98424,-8.07134,7.453415,-0.5216789,0.39095375,1.1826351,0
1776047957823,2159357,2.8860426,-9.5347185,6.3397136,0.09896017,0.42638394,0.44715336,0
1776047957862,2159436,2.8333514,-8.806622,6.5720344,0.32620203,0.39950588,0.3213151,0
1776047957903,2158960,2.4645128,-6.0762577,7.3504276,-0.5888741,0.2321288,0.24190263,0
1776047957943,2158450,2.5004387,-6.267862,7.3576126,-0.4288274,0.09285152,0.17592919,0
1776047957983,2159711,2.2465627,-6.8450704,7.3073163,-0.7965683,-0.061086524,0.056199603,0
1776047958024,2161713,2.2393775,-6.5911946,6.8426757,-0.8051204,-0.1160644,0.04886922,0
1776047958062,2163204,2.428587,-7.3528223,6.0259614,-0.6401868,-0.08552113,-0.004886922,0
1776047958102,2164110,2.55313,-8.088105,5.781666,-0.34574974,0.02321288,-0.034208454,0
1776047958147,2163454,2.4956486,-7.7815375,5.55174,-0.07696902,0.064751714,-0.028099801,0
1776047958182,2162432,2.4070315,-7.839019,5.321815,0.19303341,0.11484267,-0.02443461,0
1776047958223,2161711,2.3711057,-7.731241,5.5541353,0.24678956,0.05009095,-0.0720821,0
1776047958263,2160901,2.342365,-7.336057,6.1145782,0.02443461,0.019547688,-0.087964594,0
1776047958304,2159921,2.4094265,-7.47018,5.872678,0.037873644,0.009773844,-0.061086524,0
1776047958342,2158738,2.6345618,-7.4366493,5.628382,0.37995818,0.013439035,0.04153884,0
1776047958388,2157410,2.433377,-7.934821,5.4631233,0.7770206,0.039095376,0.0012217305,0
1776047958422,2156288,2.4812782,-6.9336877,6.4546766,0.22357668,-0.040317107,-0.004886922,0
1776047958463,2155799,2.3998463,-6.900157,6.548084,0.09285152,-0.040317107,-0.02565634,0
1776047958503,2154880,2.383081,-6.9648232,6.5816145,-0.09407325,-0.018325957,-0.03176499,0
1776047958542,2154558,2.5052288,-7.23307,6.3301334,-0.15271631,-0.004886922,-0.02687807,0
1776047958583,2154582,2.3902662,-6.787589,6.5720344,-0.4007276,-0.09773844,-0.037873644,0
1776047958624,2155200,2.3974512,-7.0702057,6.3780346,-0.38362336,-0.1160644,-0.015882496,0
1776047958663,2156105,2.5722904,-7.374378,5.9445295,-0.22113322,-0.081855945,-0.0036651916,0
1776047958702,2156152,2.6201916,-7.537242,5.7696905,-0.04642576,-0.035430185,-0.019547688,0
1776047958743,2154542,2.6201916,-7.503711,5.7792706,-0.028099801,-0.029321533,-0.02076942,0
1776047958783,2152648,2.5387595,-7.304921,5.9996157,-0.081855945,-0.04153884,-0.015882496,0
1776047958822,2150972,2.5770805,-7.331267,5.956505,-0.08307768,-0.037873644,-0.02076942,0
1776047958862,2149617,2.6561172,-7.4031186,5.8630977,-0.06841691,-0.02687807,-0.018325957,0
1776047958902,2148689,2.5866606,-7.4342546,5.757715,-0.03176499,-0.015882496,-0.007330383,0
1776047958942,2147839,2.5507348,-7.398329,5.75053,-0.015882496,-0.013439035,-0.013439035,0
1776047958983,2146906,2.6704876,-7.3959336,5.791246,-0.02687807,-0.017104227,-0.019547688,0
1776047959024,2146287,2.646537,-7.343242,5.836752,-0.040317107,-0.018325957,-0.018325957,0
1776047959063,2145729,2.687253,-7.3528223,5.7768755,-0.013439035,-0.0061086523,-0.0036651916,0
1776047959104,2145441,2.6800678,-7.424674,5.7792706,0.013439035,0.0061086523,-0.0012217305,0
1776047959143,2145324,2.6225865,-7.496526,5.76011,0.02076942,0.004886922,-0.004886922,0
1776047959182,2145247,2.6393518,-7.417489,5.791246,-0.010995574,-0.010995574,-0.004886922,0
1776047959223,2145349,2.692043,-7.379168,5.796036,-0.030543262,-0.013439035,-0.002443461,0
1776047959262,2145504,2.7231789,-7.4222794,5.8319616,-0.002443461,0.0036651916,-0.004886922,0
1776047959303,2145676,2.7040184,-7.4126987,5.74574,0.007330383,0.002443461,-0.0012217305,0
1776047959344,2145023,2.6633024,-7.3911433,5.8223815,-0.012217305,-0.012217305,0.0012217305,0
1776047959382,2143601,2.5890558,-7.4606,6.009196,-0.10873401,-0.065973446,-0.073303826,0
1776047959423,2142192,2.7351542,-7.46539,6.0906277,-0.21502456,-0.1441642,-0.057421334,0
1776047959463,2141122,2.5842657,-7.6881304,6.528923,-0.6646214,-0.13805555,-0.28344148,0
1776047959504,2139993,2.603426,-8.385092,6.8115396,-2.130698,-0.24923302,-0.61941737,0
1776047959542,2139221,2.9243636,-9.18504,5.9157887,-2.5949554,-0.45814893,-1.2302825,0
1776047959583,2138573,3.5063622,-10.428075,4.100336,-2.864958,-0.38606682,-1.8411479,0
1776047959623,2139186,4.05483,-10.310717,2.814191,-3.2534683,-0.36896262,-2.438574,0
1776047959665,2139576,5.247568,-10.341852,1.2454293,-2.6035078,0.2761111,-2.547308,0
1776047959702,2139824,6.4211454,-9.647286,0.24429573,-1.5980235,0.77091193,-2.6743681,0
1776047959742,2140198,6.066677,-9.755064,-0.40236944,-1.0519099,1.1997393,-2.8112018,0
1776047959784,2140514,5.8630977,-7.594723,0.014370337,-0.9810496,1.4660766,-2.670703,0
1776047959823,2140571,6.4570713,-5.800826,0.76402295,-0.6768387,1.582141,-2.5094345,0
1776047959865,2140459,6.17685,-4.2368546,0.98197305,-0.5839872,1.6371188,-2.1111503,0
1776047959905,2139890,6.813935,-2.7926354,1.4394288,-0.59620446,1.5063937,-1.8619173,0
1776047959943,2139221,6.7277126,-3.1758444,2.3711057,-0.4166101,1.2425,-1.8203784,0
1776047959983,2138348,7.240255,-1.7244405,3.0800424,-0.7538077,1.0836749,-1.6053538,0
