ts,ppg_raw,acc_x,acc_y,acc_z,gyr_x,gyr_y,gyr_z,hr
1776161352698,2097152,-1.2190835,5.1781116,8.349166,0.030543262,0.015882496,-0.0036651916,
1776161352738,2277040,-1.1759726,5.151766,8.291684,0.030543262,0.015882496,-0.0036651916,0
1776161352781,2276828,-1.3005155,5.108655,8.349166,-0.002443461,0.007330383,-0.0036651916,0
1776161352818,2276754,-1.235849,5.113445,8.296474,0.009773844,0.004886922,0.0012217305,0
1776161352860,2276672,-1.2047132,5.108655,8.361141,-0.009773844,0.008552114,0.008552114,0
1776161352899,2276635,-1.2095034,5.144581,8.320425,0.0036651916,0.010995574,0.0036651916,0
1776161352943,2276608,-1.2430341,5.1757164,8.29408,0.012217305,0.010995574,0.0,0
1776161352976,2276608,-1.2430341,5.1757164,8.29408,0.012217305,0.010995574,0.0,0
1776161353020,2276558,-1.2909353,5.0655437,8.370722,0.02687807,0.007330383,0.004886922,0
1776161353056,2276633,-1.2310588,5.0847044,8.385092,0.013439035,0.002443461,0.009773844,0
1776161353096,2073612,-1.2095034,5.1038647,8.310845,0.0012217305,0.007330383,0.013439035,0
1776161353137,2073720,-1.2574044,4.938606,8.1910925,-0.02321288,0.008552114,0.018325957,0
1776161353178,2073772,-1.2669847,4.931421,8.068944,-0.02321288,0.008552114,0.018325957,0
1776161353219,2073903,-1.2957253,5.015248,8.167142,-0.064751714,0.05375614,0.015882496,0
1776161353260,2074063,-1.362787,5.0870996,8.210253,-0.039095376,0.064751714,0.039095376,0
1776161353301,2097992,-1.238244,5.0200377,8.387486,-0.02321288,0.04520403,0.035430185,0
1776161353338,2098347,-1.108911,5.1302104,8.543165,-0.02321288,0.04520403,0.035430185,0
1776161353381,2098547,-1.1903429,4.9649515,8.53119,-0.02321288,0.04520403,0.035430185,0
1776161353417,2098103,-1.1903429,4.9649515,8.53119,-0.02321288,0.04520403,0.035430185,0
1776161353457,2097730,-1.2047132,4.998482,8.385092,0.013439035,-0.047647487,0.013439035,0
1776161353497,2094141,-1.2023182,4.91226,8.353956,-0.013439035,-0.04642576,0.034208454,0
1776161353541,2093920,-1.1759726,4.9745317,8.284499,-0.04642576,-0.034208454,0.04642576,0
1776161353576,2094086,-1.281355,4.900285,8.224623,-0.04642576,-0.034208454,0.04642576,0
1776161353617,2094409,-1.1448369,4.979322,8.255758,-0.04642576,-0.034208454,0.04642576,0
1776161353659,2094572,-1.2190835,4.8835196,8.310845,-0.04642576,-0.034208454,0.04642576,0
1776161353697,2094702,-1.2645897,4.869149,8.315635,-0.12339478,-0.008552114,0.13194689,0
1776161353737,2095094,-1.3819474,4.998482,8.270129,-0.2321288,-0.07819075,0.267559,0
1776161353778,2095521,-1.5855272,4.823643,8.08571,-0.2321288,-0.07819075,0.267559,0
1776161353818,2096120,-1.6142678,4.737421,7.9851174,-0.2321288,-0.07819075,0.267559,0
1776161353859,2096632,-1.4633794,4.306311,8.092895,-0.53878313,-0.12583824,0.6096435,0
1776161353898,2097163,-1.4154782,4.2368546,8.325215,-0.6401868,-0.08552113,0.58032197,0
1776161353938,2097636,-1.1113061,3.5997694,8.569511,-0.5497787,-0.056199603,0.56199604,0
1776161353978,2098156,-0.9676027,3.7314975,8.737165,-0.5497787,-0.056199603,0.56199604,0
1776161354018,2098683,-0.58439374,3.4752266,8.765905,-0.5497787,-0.056199603,0.56199604,0
1776161354057,2099203,-0.51733214,2.7471294,8.909609,-0.93584555,-0.1600467,0.68416905,0
1776161354100,2099802,-0.1532836,2.474093,8.971881,-1.0885619,-0.1600467,0.64873886,0
1776161354138,2099210,-0.10538247,1.8465884,8.665314,-1.1533136,-0.26511553,0.6939429,0
1776161354176,2098300,0.2299254,1.4178733,8.801831,-1.2889256,-0.28221974,0.7611381,0
1776161354216,2097709,0.27543145,1.2861452,8.722795,-1.2889256,-0.28221974,0.7611381,0
1776161354257,2097706,0.033530787,0.9891582,9.218572,-1.2889256,-0.28221974,0.7611381,0
1776161354297,2097884,0.41434473,1.1735775,9.996964,-1.0616838,0.065973446,1.2498302,0
1776161354337,2098623,0.5867888,1.4514041,10.830444,-0.7305948,0.26511553,1.2767084,0
1776161354378,2099658,1.6430086,1.5184656,11.192098,-0.7305948,0.26511553,1.2767084,0
1776161354416,2100183,1.9855015,0.8238993,10.739432,-0.7305948,0.26511553,1.2767084,0
1776161354458,2101098,1.0059236,-0.8238993,10.921456,-0.7305948,0.26511553,1.2767084,0
1776161354498,2102568,0.07424674,0.22274023,9.802965,-0.13927728,0.2773328,1.3316863,0
1776161354537,2104263,0.16046876,0.13412315,9.599385,-0.2883284,0.21380283,1.3536774,0
1776161354577,2105564,-0.12454292,-0.9244917,9.220966,-0.4251622,0.2883284,1.2986995,0
1776161354618,2107298,-0.2299254,-1.3579968,9.407781,-0.4251622,0.2883284,1.2986995,0
1776161354657,2108786,-0.5508629,-1.9783164,9.7862,-0.4251622,0.2883284,1.2986995,0
1776161354698,2110289,0.026345618,-2.2465627,9.266473,-1.0128145,0.2125811,0.5412266,0
1776161354738,2111478,-0.59636897,-2.4525375,9.070078,-0.8002335,0.3115413,0.344528,0
1776161354777,2112498,-1.106516,-3.1303384,9.117979,-0.54000485,0.27488935,0.18692477,0
1776161354817,2113419,-2.2250073,-3.7674234,10.3394575,-0.54000485,0.27488935,0.18692477,0
1776161354859,2114839,-1.9256252,-1.362787,9.280843,-0.54000485,0.27488935,0.18692477,0
1776161354898,2114978,-2.0645385,-1.619058,9.323954,-0.3200934,0.3115413,-0.030543262,0
1776161354937,2114675,-1.8968844,-1.4226633,9.376645,-0.15027285,0.3213151,-0.030543262,0
1776161354976,2114987,-1.2621946,-2.220217,8.854523,0.23945917,0.3286455,0.0061086523,0
1776161355018,2115191,-0.77839327,-2.3711057,9.192225,0.23945917,0.3286455,0.0061086523,0
1776161355057,2115619,-0.31135732,-1.9447856,9.283237,0.23945917,0.3286455,0.0061086523,0
1776161355100,2115739,-0.5915789,-2.9722648,9.644892,0.035430185,-0.06963864,0.017104227,0
1776161355137,2115748,-0.9867631,-2.4070315,9.465262,-0.11728613,-0.25778514,-0.015882496,0
1776161355179,2115610,-1.748391,-2.5195992,9.522743,-0.17348573,-0.17715092,0.010995574,0
1776161355216,2115490,-2.6393518,-1.5424162,9.113189,-0.17348573,-0.17715092,0.010995574,0
1776161355259,2115523,-2.2944639,-1.3795524,9.103608,-0.17348573,-0.17715092,0.010995574,0
1776161355297,2115093,-0.936467,-2.9315488,9.5347185,-0.07086037,-0.030543262,0.019547688,0
1776161355336,2114781,-1.4394288,-2.7615,9.132349,-0.037873644,-0.004886922,0.029321533,0
1776161355380,2114835,-1.5064903,-2.3567352,9.192225,-0.04520403,0.018325957,0.002443461,0
1776161355419,2114634,-1.410688,-2.3806858,9.232942,-0.028099801,0.02565634,-0.007330383,0
1776161355458,2114453,-1.4130832,-2.517204,9.194621,-0.028099801,0.02565634,-0.007330383,0
1776161355498,2114372,-1.4011079,-2.5914507,9.285633,0.002443461,0.029321533,0.015882496,0
1776161355537,2114406,-1.4370337,-2.5028336,9.247312,0.02321288,0.028099801,0.021991149,0
1776161355582,2114371,-1.403503,-2.5507348,9.1706705,0.009773844,0.02321288,0.03176499,0
1776161355616,2113334,-1.3675771,-2.466908,9.16588,0.036651913,0.018325957,0.028099801,0
1776161355658,2111858,-1.4154782,-2.6058211,9.194621,0.036651913,0.018325957,0.028099801,0
1776161355697,2110802,-1.5424162,-2.4405622,9.192225,0.036651913,0.018325957,0.028099801,0
1776161355736,2110054,-1.4849348,-2.5746853,9.17546,0.009773844,0.02687807,0.0,0
1776161355776,2109377,-1.5783421,-2.56271,9.17546,0.02076942,0.02321288,0.0036651916,0
1776161355819,2109021,-1.4729595,-2.5195992,9.302399,0.013439035,0.018325957,0.008552114,0
1776161355859,2108646,-1.408293,-2.4477475,9.254498,0.013439035,0.018325957,0.008552114,0
1776161355897,2108177,-1.4274535,-2.598636,9.197016,0.013439035,0.018325957,0.008552114,0
1776161355939,2107828,-1.5711569,-2.476488,9.244917,0.021991149,0.015882496,0.0061086523,0
1776161355985,2107665,-1.5519965,-2.5291793,9.213781,0.02321288,0.012217305,0.012217305,0
1776161356019,2107541,-1.4777497,-2.5004387,9.17546,0.012217305,0.015882496,0.009773844,0
1776161356057,2107596,-1.4705645,-2.514809,9.235336,0.013439035,0.021991149,0.0036651916,0
1776161356097,2107749,-1.4322436,-2.5675,9.220966,0.013439035,0.021991149,0.0036651916,0
1776161356137,2107881,-1.4633794,-2.476488,9.2616825,0.02321288,0.019547688,0.012217305,0
1776161356179,2108007,-1.408293,-2.4884634,9.249707,0.019547688,0.013439035,0.013439035,0
1776161356217,2108256,-1.5687618,-2.5100188,9.259287,0.018325957,0.010995574,0.007330383,0
1776161356257,2108543,-1.4969101,-2.5100188,9.228151,0.02687807,0.015882496,0.012217305,0
1776161356311,2106868,-1.5208607,-2.3208094,9.19941,0.02687807,0.015882496,0.012217305,0
1776161356339,2106868,-1.5208607,-2.3208094,9.19941,0.02687807,0.015882496,0.012217305,0
1776161356379,2106061,-1.5208607,-2.4836733,9.228151,0.010995574,0.02076942,0.0061086523,0
1776161356417,2105660,-1.5208607,-2.4166117,9.240127,0.0036651916,0.019547688,0.009773844,0
1776161356458,2105299,-1.4442189,-2.4453523,9.237732,0.012217305,0.015882496,0.008552114,0
1776161356497,2105119,-1.4274535,-2.5243893,9.290423,0.012217305,0.015882496,0.008552114,0
1776161356537,2105058,-1.4969101,-2.55313,9.242522,0.012217305,0.015882496,0.008552114,0
1776161356580,2104861,-1.4585892,-2.4597228,9.218572,0.012217305,0.015882496,0.008552114,0
1776161356620,2104691,-1.5663668,-2.466908,9.18504,0.012217305,0.015882496,0.008552114,0
1776161356657,2104662,-1.4657744,-2.4884634,9.218572,0.014660766,0.014660766,0.009773844,0
1776161356697,2104785,-1.4825398,-2.4573276,9.213781,0.012217305,0.014660766,0.0061086523,0
1776161356736,2105032,-1.4993051,-2.4166117,9.2616825,0.012217305,0.014660766,0.0061086523,0
1776161356776,2105258,-1.4394288,-2.4836733,9.223361,0.013439035,0.012217305,0.0061086523,0
1776161356820,2105637,-1.5017003,-2.438167,9.228151,0.018325957,0.010995574,0.007330383,0
1776161356856,2105991,-1.4298486,-2.5267842,9.225757,0.010995574,0.010995574,0.008552114,0
1776161356896,2106472,-1.4945151,-2.4932535,9.213781,0.018325957,0.007330383,0.004886922,0
1776161356937,2107005,-1.4777497,-2.5052288,9.225757,0.018325957,0.007330383,0.004886922,0
1776161356978,2107160,-1.5184656,-2.5339694,9.18025,0.028099801,0.0061086523,0.004886922,0
1776161357018,2106336,-1.4561942,-2.5100188,9.264077,0.04886922,0.002443461,0.010995574,0
1776161357057,2105453,-1.5112804,-2.512414,9.295213,0.12583824,0.0,0.007330383,0
1776161357097,2104881,-1.3939227,-2.3711057,9.264077,0.13683382,0.012217305,0.004886922,0
1776161357137,2104419,-1.5136755,-2.3711057,9.309584,0.13683382,0.012217305,0.004886922,0
1776161357178,2104284,-1.4394288,-2.378291,9.17546,0.036651913,0.012217305,0.002443461,0
1776161357217,2104313,-1.4657744,-2.3998463,9.371855,0.09773844,-0.004886922,-0.0012217305,0
1776161357256,2104377,-1.4202683,-2.2705133,9.302399,0.103847094,-0.014660766,0.002443461,0
1776161357297,2104388,-1.4442189,-2.220217,9.314374,0.05375614,-0.0036651916,-0.0036651916,0
1776161357338,2104519,-1.4011079,-2.3160193,9.311978,0.05375614,-0.0036651916,-0.0036651916,0
1776161357376,2104710,-1.4753547,-2.2705133,9.455682,0.05375614,-0.0036651916,-0.0036651916,0
1776161357417,2105127,-1.4561942,-2.1268098,9.405386,-0.007330383,-0.073303826,-0.034208454,0
1776161357456,2105567,-1.020294,-2.3543403,9.419756,-0.14782938,-0.12705997,-0.010995574,0
1776161357497,2106096,-1.2406391,-2.2896738,9.474842,0.09040806,-0.1282817,-0.029321533,0
1776161357537,2106901,-1.0059236,-2.3974512,9.144324,0.09040806,-0.1282817,-0.029321533,0
1776161357577,2108090,-1.0083187,-2.3543403,9.14193,0.09040806,-0.1282817,-0.029321533,0
1776161357618,2109463,-1.0969357,-2.2297974,9.153905,0.087964594,-0.112399206,0.013439035,0
1776161357658,2111114,-1.1855528,-2.1268098,9.326349,0.081855945,-0.22113322,0.08674286,0
1776161357696,2112771,-1.2430341,-1.6022925,9.652077,-0.009773844,-0.3640757,0.17104226,0
1776161357736,2113605,-1.1759726,-1.8609587,9.882002,0.008552114,-0.42271876,0.1282817,0
1776161357777,2113786,-0.6442701,-2.4214017,10.121508,0.008552114,-0.42271876,0.1282817,0
1776161357818,2114346,-0.73767734,-2.1555505,9.752668,-0.13927728,-0.6792821,0.034208454,0
1776161357856,2114676,-0.40715957,-2.852512,9.376645,-0.02443461,-0.63529986,0.04886922,0
1776161357899,2115068,-0.45027056,-2.1387851,9.137139,-0.21013765,-0.5766568,0.009773844,0
1776161357936,2115559,-0.01916045,-2.1124396,9.254498,-0.18692477,-0.5656612,0.02687807,0
1776161357977,2115984,0.25387597,-2.2968588,9.115583,-0.18692477,-0.5656612,0.02687807,0
1776161358017,2116093,0.42392495,-1.8298229,8.967091,0.10629055,-0.37018433,0.2565634,0
1776161358058,2116395,0.6658256,-1.9926867,8.804227,0.23579398,-0.30298916,0.36651915,0
1776161358096,2116739,0.7568377,-2.2226121,8.792252,0.44715336,-0.25778514,0.43004912,0
1776161358136,2117619,1.0729852,-2.4094265,8.722795,0.49968776,-0.10262536,0.4447099,0
1776161358176,2119039,0.99155325,-1.9519708,9.151509,0.49968776,-0.10262536,0.4447099,0
1776161358216,2121104,1.0921457,-1.9232302,9.055707,0.49968776,-0.10262536,0.4447099,0
1776161358258,2123095,1.233454,-2.2944639,8.940744,0.11484267,0.16126843,0.22113322,0
1776161358302,2125152,0.8837757,-2.6609075,9.043732,0.21135938,0.17837265,0.25167647,0
1776161358336,2126978,0.68498605,-1.8226378,9.410175,0.33475417,0.118507855,0.26511553,0
1776161358376,2128855,0.29698697,-1.7292305,9.743089,0.4361578,0.089186326,0.25534168,0
1776161358416,2130654,0.2179501,-1.0873555,9.968224,0.4361578,0.089186326,0.25534168,0
1776161358456,2132319,-1.0466396,-0.7185168,8.248573,1.6566665,-0.28099802,0.15760323,0
1776161358498,2132738,0.9723928,-0.09340719,10.911876,0.37140608,-0.14172074,0.24923302,0
1776161358537,2131400,0.0766418,0.66103554,10.001755,-0.26145032,-0.06963864,-0.1966986,0
1776161358576,2128644,0.7041465,0.13891326,10.159828,-0.5119051,-0.02321288,-0.25167647,0
1776161358617,2127936,0.7185168,-0.23232046,9.807755,-0.5119051,-0.02321288,-0.25167647,0
1776161358657,2127830,0.5915789,-1.6501937,9.393411,-0.14660765,0.10995574,0.004886922,0
1776161358696,2128318,0.7831834,-1.7867119,9.498793,-0.0012217305,0.06841691,-0.02076942,0
1776161358739,2128989,0.70893663,-1.2574044,9.685607,-0.20769419,0.08552113,0.0012217305,0
1776161358776,2129566,0.5867888,-1.0849605,10.00894,-0.37018433,0.080634214,-0.018325957,0
1776161358817,2130279,0.41673976,-1.0969357,9.896372,-0.37018433,0.080634214,-0.018325957,0
1776161358859,2131431,0.6514553,-1.8010823,9.951459,0.04153884,-0.23945917,-0.0720821,0
1776161358898,2132985,1.3196759,-1.1184913,9.826916,0.0012217305,-0.204029,-0.052534413,0
1776161358937,2134011,1.2502193,-1.2502193,9.448497,0.172264,-0.14782938,-0.036651913,0
1776161358978,2134797,1.6094778,-1.1352566,9.422151,0.1881465,-0.09040806,-0.039095376,0
1776161359017,2135700,1.3364414,-1.3603919,9.58262,0.1881465,-0.09040806,-0.039095376,0
1776161359058,2136650,1.1687875,-1.7867119,9.841286,0.09285152,-0.16737708,-0.112399206,0
1776161359097,2137948,1.149627,-1.8298229,9.968224,0.021991149,-0.3555236,-0.12461651,0
1776161359137,2139124,0.9723928,-1.8537735,10.229285,-0.13561209,-0.5571091,-0.14905111,0
1776161359177,2140135,1.2430341,-1.8346131,9.934693,-0.04886922,-0.5900958,-0.111177474,0
1776161359218,2141032,1.1999232,-1.0993308,9.448497,-0.13561209,-0.6096435,-0.112399206,0
1776161359260,2140837,1.1759726,-1.8250328,9.719138,-0.13561209,-0.6096435,-0.112399206,0
1776161359297,2140778,1.6286383,-2.7112036,9.529928,-0.7440339,-0.63041294,-0.63163465,0
1776161359337,2140732,1.9232302,-2.55792,9.503583,-0.6291912,-0.6230826,-0.816116,0
1776161359377,2140660,2.6297717,-2.936339,8.897634,-0.43860126,-0.4728097,-0.874759,0
1776161359416,2140660,2.6297717,-2.936339,8.897634,-0.49113566,-0.39095375,-0.8943067,0
1776161359457,2140259,3.3123627,-2.6656976,8.519215,-0.49113566,-0.39095375,-0.8943067,0
1776161359498,2139880,3.580609,-2.342365,8.603042,-0.8222246,-0.14660765,-0.88453287,0
1776161359537,2139880,3.580609,-2.342365,8.603042,-0.56688297,-0.08552113,-0.93462384,0
1776161359577,2139506,3.705152,-3.4440908,8.10966,-0.29810223,0.0,-0.9773844,0
1776161359617,2139341,3.8991516,-2.7088087,8.2749195,-0.42760566,0.056199603,-1.0177015,0
1776161359656,2139516,3.8272998,-3.0489066,8.203068,-0.42760566,0.056199603,-1.0177015,0
1776161359697,2139577,3.8033493,-2.9578943,8.229413,0.095294975,0.2932153,-1.097114,0
1776161359739,2139733,3.7578433,-2.4166117,8.145586,0.13561209,0.36041048,-1.0323622,0
1776161359776,2139986,3.6069546,-2.0980692,8.1910925,0.21502456,0.4007276,-0.9297369,0
1776161359816,2140312,3.5853992,-1.7771317,8.203068,0.19303341,0.45937067,-0.88208944,0
1776161359857,2140312,3.5853992,-1.7771317,8.203068,0.19303341,0.45937067,-0.88208944,0
1776161359898,2140994,3.0992026,-1.4346386,8.3731165,0.43004912,0.61208695,-0.5925393,0
1776161359937,2140994,3.0992026,-1.4346386,8.3731165,0.12339478,0.7171558,-0.5571091,0
1776161359977,2141393,2.7926354,-1.2502193,8.385092,-0.0036651916,0.73426,-0.5510005,0
1776161360017,2141046,2.342365,-1.1903429,8.950325,-0.0036651916,0.7122689,-0.50335294,0
1776161360057,2140730,2.2489579,-0.92688674,9.084448,-0.0036651916,0.7122689,-0.50335294,0
1776161360099,2140739,2.1028593,-1.0059236,9.201806,-0.0036651916,0.7122689,-0.50335294,0
1776161360136,2140739,2.1028593,-1.0059236,9.201806,0.07819075,0.61086524,-0.25045475,0
1776161360178,2140865,1.6549839,-0.7712081,9.374249,-0.30909783,0.7049385,-0.18692477,0
1776161360216,2141756,1.0370593,-1.1903429,9.537114,-0.15149458,0.69027776,-0.19181168,0
1776161360258,2141756,1.0370593,-1.1903429,9.537114,0.017104227,0.7098254,-0.172264,0
1776161360296,2142603,0.6179245,-0.7065416,9.666447,0.017104227,0.7098254,-0.172264,0
1776161360336,2142603,0.6179245,-0.7065416,9.666447,0.04520403,0.75502944,0.2003638,0
1776161360377,2143857,0.09340719,-0.65864044,10.327482,0.7049385,0.44226643,0.6072,0
1776161360419,2144732,0.15088853,0.016765393,10.21252,0.8698721,0.18936823,1.1007792,0
1776161360456,2145876,0.21076494,1.4418238,11.122641,0.25411993,-0.04153884,1.4575244,0
1776161360497,2145876,0.21076494,1.4418238,11.122641,0.25411993,-0.04153884,1.4575244,0
1776161360536,2147144,0.15088853,0.7927636,10.832839,0.32620203,-0.48624873,1.8826867,0
1776161360578,2148806,0.37362877,-1.0873555,9.865236,-0.22724187,-0.17837265,1.6016886,0
1776161360616,2148806,0.37362877,-1.0873555,9.865236,-0.28221974,-0.017104227,1.3683381,0
1776161360656,2150188,0.33530787,-1.8370081,9.367064,0.16493362,0.3115413,0.9737192,0
1776161360698,2151326,0.6131344,-2.0813038,9.058103,0.16493362,0.3115413,0.9737192,0
1776161360738,2152373,0.71133167,-1.9495758,8.888054,-0.33108896,0.816116,0.33353242,0
1776161360778,2153040,0.22034517,-2.0070572,8.895239,-0.45570546,1.0005972,0.15149458,0
1776161360821,2152914,0.5772085,-2.4046364,8.593462,0.3042109,1.0506883,-0.07574729,0
1776161360856,2152687,0.30417213,-1.408293,9.656866,0.54733527,0.9260717,-0.06352998,0
1776161360897,2152687,0.30417213,-1.408293,9.656866,0.54733527,0.9260717,-0.06352998,0
1776161360939,2152860,0.1149627,-0.51733214,9.611361,-0.7965683,0.31764993,0.3848451,0
1776161360977,2153247,0.009580225,0.47901124,11.32143,-0.4728097,0.33841935,0.3200934,0
1776161361016,2153692,-0.21076494,-0.80234385,9.767039,-0.2724459,0.20280726,0.37751472,0
1776161361056,2153360,-2.7854505,-2.090884,10.835235,-0.30176744,-0.036651913,0.17715092,0
1776161361130,2153156,-3.7650282,-2.9267588,10.475976,-0.30176744,-0.036651913,0.17715092,0
1776161361141,2152583,-3.7650282,-2.9267588,10.475976,-0.30176744,-0.036651913,0.17715092,0
1776161361176,2151967,-2.0980692,-1.7100701,9.062893,-0.1881465,-0.05009095,0.06352998,0
1776161361218,2151967,-2.0980692,-1.7100701,9.062893,-0.040317107,-0.04886922,0.037873644,0
1776161361257,2150091,-1.5975025,-1.659774,9.343114,-0.25900686,-0.061086524,0.013439035,0
1776161361297,2150091,-1.5975025,-1.659774,9.343114,-0.25900686,-0.061086524,0.013439035,0
1776161361343,2149593,-1.8992796,-1.621453,9.56825,-0.07941248,-0.008552114,0.009773844,0
1776161361381,2149410,-1.8202426,-1.3939227,9.56825,-0.061086524,-0.02443461,0.018325957,0
1776161361417,2149215,-1.5160706,-1.9088597,9.355089,-0.07819075,-0.008552114,0.0036651916,0
1776161361457,2149114,-1.4825398,-2.0477731,9.252102,0.018325957,0.018325957,-0.015882496,0
1776161361497,2148966,-1.4825398,-2.0477731,9.252102,0.021991149,0.008552114,-0.009773844,0
1776161361536,2148895,-1.6717492,-1.8825141,9.5347185,0.021991149,0.008552114,-0.009773844,0
1776161361576,2147962,-1.5663668,-2.002267,9.343114,0.004886922,0.019547688,0.002443461,0
1776161361616,2146148,-1.6358234,-2.086094,9.381435,-0.004886922,0.013439035,0.007330383,0
1776161361657,2144596,-1.6501937,-1.8968844,9.386225,0.0012217305,0.02076942,0.007330383,0
1776161361696,2143408,-1.5855272,-1.9759214,9.288028,0.013439035,0.02443461,0.009773844,0
1776161361736,2142263,-1.5687618,-2.1172297,9.436522,0.013439035,0.02443461,0.009773844,0
1776161361777,2141286,-1.6358234,-2.0166373,9.297608,0.010995574,0.018325957,0.010995574,0
1776161361817,2140543,-1.616663,-2.0214274,9.309584,0.010995574,0.013439035,0.012217305,0
1776161361858,2139525,-1.5927124,-1.9112549,9.36946,0.0061086523,0.014660766,0.008552114,0
1776161361897,2138649,-1.5879222,-1.9974768,9.357485,0.010995574,0.018325957,0.007330383,0
1776161361937,2137797,-1.5831321,-2.0669334,9.343114,0.010995574,0.018325957,0.007330383,0
1776161361976,2137109,-1.5759469,-2.054958,9.3598795,0.012217305,0.018325957,0.0036651916,0
1776161362017,2136610,-1.659774,-2.0597484,9.319163,0.009773844,0.018325957,0.0012217305,0
1776161362056,2136146,-1.5975025,-1.9807115,9.311978,0.013439035,0.014660766,0.004886922,0
1776161362096,2135654,-1.6262431,-2.0741186,9.36946,0.019547688,0.017104227,0.008552114,0
1776161362137,2135377,-1.6310333,-2.0597484,9.343114,0.019547688,0.017104227,0.008552114,0
1776161362179,2135092,-1.6430086,-1.9423906,9.343114,0.017104227,0.012217305,0.0036651916,0
1776161362216,2134825,-1.5280459,-2.0381927,9.338325,0.015882496,0.012217305,0.0036651916,0
1776161362256,2134586,-1.6070827,-2.0573533,9.307188,0.021991149,0.017104227,0.0036651916,0
1776161362298,2134264,-1.5879222,-1.9783164,9.311978,0.02321288,0.017104227,0.010995574,0
1776161362337,2132744,-1.6382184,-2.002267,9.3982,0.02321288,0.017104227,0.010995574,0
1776161362379,2130676,-1.6118728,-1.9567609,9.362274,0.017104227,0.017104227,0.008552114,0
1776161362416,2129063,-1.5448112,-2.0573533,9.357485,0.017104227,0.014660766,0.008552114,0
1776161362457,2127770,-1.6358234,-1.9663411,9.340719,0.019547688,0.02076942,0.009773844,0
1776161362497,2126659,-1.5903172,-1.9615511,9.343114,0.014660766,0.017104227,0.0061086523,0
1776161362536,2125908,-1.5783421,-2.004662,9.331139,0.017104227,0.014660766,0.009773844,0
1776161362578,2125057,-1.5759469,-2.0166373,9.38383,0.014660766,0.017104227,0.002443461,0
1776161362619,2124027,-1.6406134,-2.0166373,9.314374,0.013439035,0.015882496,0.0061086523,0
1776161362656,2123096,-1.5903172,-1.9687362,9.393411,0.018325957,0.013439035,0.008552114,0
1776161362696,2122450,-1.6477987,-2.0166373,9.367064,0.014660766,0.014660766,0.007330383,0
1776161362737,2121910,-1.6286383,-1.9711312,9.3598795,0.014660766,0.012217305,0.0061086523,0
1776161362777,2121503,-1.5927124,-1.9639461,9.36946,0.014660766,0.012217305,0.0061086523,0
1776161362817,2121268,-1.7028849,-2.040588,9.328744,0.014660766,0.013439035,0.010995574,0
1776161362858,2120933,-1.5567865,-1.9064647,9.3503,0.017104227,0.013439035,0.0061086523,0
1776161362897,2120705,-1.6765393,-1.999872,9.302399,0.012217305,0.014660766,0.004886922,0
1776161362936,2120630,-1.5591816,-2.0525632,9.374249,0.017104227,0.017104227,0.004886922,0
1776161362977,2120542,-1.6094778,-1.9878967,9.376645,0.017104227,0.017104227,0.004886922,0
1776161363020,2120313,-1.6310333,-1.9902917,9.314374,0.019547688,0.010995574,0.010995574,0
1776161363057,2118644,-1.5975025,-2.0238225,9.37904,0.017104227,0.017104227,0.008552114,0
1776161363098,2116479,-1.5759469,-1.9950818,9.371855,0.012217305,0.014660766,0.008552114,0
1776161363137,2114883,-1.616663,-2.0070572,9.3526945,0.017104227,0.014660766,0.007330383,0
1776161363177,2113604,-1.6382184,-2.004662,9.400596,0.017104227,0.014660766,0.007330383,0
1776161363216,2111663,-1.6382184,-2.002267,9.38862,0.014660766,0.017104227,0.0061086523,0
1776161363257,2111663,-1.6382184,-2.002267,9.38862,0.012217305,0.013439035,0.007330383,0
1776161363297,2111034,-1.6573789,-2.004662,9.36467,0.013439035,0.015882496,0.0061086523,0
1776161363336,2110155,-1.621453,-1.9783164,9.321559,0.014660766,0.014660766,0.008552114,0
1776161363377,2109322,-1.6142678,-2.054958,9.386225,0.014660766,0.014660766,0.008552114,0
1776161363417,2108759,-1.659774,-1.9902917,9.3598795,0.013439035,0.014660766,0.004886922,0
1776161363458,2108419,-1.6549839,-2.0118473,9.34551,0.012217305,0.013439035,0.007330383,0
1776161363496,2108177,-1.6885146,-2.0070572,9.355089,0.014660766,0.014660766,0.0061086523,0
1776161363538,2108067,-1.664564,-1.9902917,9.333534,0.014660766,0.013439035,0.008552114,0
1776161363578,2108048,-1.6118728,-2.009452,9.362274,0.010995574,0.015882496,0.0061086523,0
1776161363620,2107970,-1.6094778,-1.9591559,9.391015,0.012217305,0.014660766,0.0036651916,0
1776161363658,2108029,-1.5951074,-1.9807115,9.3598795,0.013439035,0.015882496,0.0061086523,0
1776161363699,2108111,-1.619058,-2.0310078,9.381435,0.017104227,0.013439035,0.004886922,0
1776161363736,2108140,-1.621453,-2.0238225,9.34551,0.014660766,0.013439035,0.008552114,0
1776161363777,2107115,-1.6765393,-1.9759214,9.36946,0.017104227,0.015882496,0.009773844,0
1776161363816,2105149,-1.6382184,-2.0334027,9.357485,0.017104227,0.015882496,0.009773844,0
1776161363862,2103672,-1.6118728,-2.0166373,9.419756,0.017104227,0.015882496,0.007330383,0
1776161363898,2102561,-1.6501937,-1.9711312,9.321559,0.014660766,0.018325957,0.009773844,0
1776161363936,2101809,-1.662169,-2.0286126,9.340719,0.013439035,0.015882496,0.0061086523,0
1776161363976,2101132,-1.6477987,-1.9423906,9.414966,0.014660766,0.014660766,0.007330383,0
1776161364016,2100661,-1.6549839,-1.9687362,9.376645,0.014660766,0.014660766,0.007330383,0
1776161364056,2100067,-1.5783421,-1.9687362,9.36467,0.013439035,0.013439035,0.007330383,0
1776161364097,2099551,-1.5687618,-2.0142422,9.410175,0.018325957,0.014660766,0.0036651916,0
1776161364136,2099136,-1.5998975,-1.9711312,9.321559,0.009773844,0.013439035,0.0061086523,0
1776161364178,2099058,-1.6310333,-2.040588,9.3526945,0.018325957,0.014660766,0.004886922,0
1776161364218,2098975,-1.6070827,-1.9855015,9.37904,0.018325957,0.014660766,0.004886922,0
1776161364257,2099139,-1.5831321,-1.9807115,9.355089,0.018325957,0.017104227,0.009773844,0
1776161364296,2099279,-1.6022925,-1.9567609,9.431731,0.007330383,0.017104227,0.010995574,0
1776161364336,2099509,-1.6909096,-1.9711312,9.3503,0.013439035,0.013439035,0.0036651916,0
1776161364378,2099753,-1.6501937,-2.002267,9.355089,0.008552114,0.014660766,0.009773844,0
1776161364418,2100018,-1.616663,-2.0357978,9.410175,0.008552114,0.014660766,0.009773844,0
1776161364462,2100481,-1.6262431,-1.9376005,9.362274,0.014660766,0.017104227,0.009773844,0
1776161364496,2100532,-1.6238481,-1.9831065,9.374249,0.018325957,0.015882496,0.010995574,0
1776161364536,2099249,-1.6142678,-2.040588,9.417361,0.015882496,0.018325957,0.010995574,0
1776161364579,2097931,-1.5831321,-1.9950818,9.297608,0.009773844,0.015882496,0.0061086523,0
1776161364617,2097070,-1.6789343,-1.9591559,9.362274,0.009773844,0.015882496,0.0061086523,0
1776161364657,2096430,-1.6430086,-1.999872,9.326349,0.014660766,0.018325957,0.009773844,0
1776161364697,2096122,-1.5975025,-2.0334027,9.371855,0.012217305,0.015882496,0.007330383,0
1776161364737,2095952,-1.6789343,-1.9878967,9.3503,0.009773844,0.014660766,0.0036651916,0
1776161364776,2095795,-1.621453,-1.9950818,9.391015,0.012217305,0.013439035,0.004886922,0
1776161364818,2095517,-1.6956998,-2.0190325,9.3503,0.008552114,0.013439035,0.0061086523,0
1776161364859,2095341,-1.5903172,-1.9256252,9.400596,0.009773844,0.014660766,0.0061086523,0
1776161364897,2095492,-1.6046877,-1.9783164,9.374249,0.010995574,0.013439035,0.0061086523,0
1776161364938,2095670,-1.6238481,-1.9831065,9.355089,0.008552114,0.013439035,0.008552114,0
1776161364976,2096036,-1.5951074,-1.9878967,9.362274,0.012217305,0.015882496,0.0061086523,0
1776161365017,2096389,-1.6525887,-2.040588,9.302399,0.009773844,0.013439035,0.008552114,0
1776161365056,2096814,-1.6741443,-2.0070572,9.347904,0.009773844,0.013439035,0.008552114,0
1776161365096,2097219,-1.5639716,-2.0381927,9.314374,0.010995574,0.014660766,0.007330383,0
1776161365137,2097758,-1.6406134,-2.0381927,9.333534,0.012217305,0.015882496,0.008552114,0
1776161365177,2098298,-1.6861196,-2.0310078,9.400596,0.014660766,0.014660766,0.008552114,0
1776161365217,2098877,-1.5591816,-1.9807115,9.335929,0.012217305,0.015882496,0.010995574,0
1776161365256,2098904,-1.6238481,-1.9711312,9.386225,0.012217305,0.015882496,0.010995574,0
1776161365297,2097904,-1.664564,-2.002267,9.357485,0.007330383,0.012217305,0.008552114,0
1776161365338,2097200,-1.6094778,-2.0286126,9.38862,0.017104227,0.014660766,0.008552114,0
1776161365377,2096887,-1.6573789,-1.9855015,9.309584,0.014660766,0.015882496,0.007330383,0
1776161365419,2096626,-1.621453,-1.999872,9.412571,0.014660766,0.014660766,0.0036651916,0
1776161365457,2096741,-1.6717492,-2.0357978,9.316769,0.014660766,0.014660766,0.0036651916,0
1776161365497,2096895,-1.6334283,-1.9399955,9.3598795,0.017104227,0.013439035,0.0036651916,0
1776161365536,2096855,-1.6454036,-2.0238225,9.302399,0.015882496,0.014660766,0.007330383,0
1776161365579,2096893,-1.6358234,-2.0214274,9.34551,0.015882496,0.012217305,0.007330383,0
1776161365619,2097053,-1.6693542,-2.002267,9.386225,0.017104227,0.013439035,0.0061086523,0
1776161365657,2097328,-1.659774,-2.0214274,9.386225,0.017104227,0.013439035,0.0061086523,0
1776161365698,2097734,-1.6477987,-2.0334027,9.376645,0.017104227,0.015882496,0.009773844,0
1776161365745,2098715,-1.6094778,-1.9783164,9.338325,0.013439035,0.017104227,0.008552114,0
1776161365776,2098715,-1.6262431,-1.9376005,9.323954,0.02565634,0.013439035,0.0,84
1776161365818,2099265,-1.6885146,-2.0310078,9.367064,0.05009095,0.017104227,-0.015882496,84
1776161365857,2099756,-1.619058,-1.9543658,9.431731,0.05009095,0.017104227,-0.015882496,84
1776161365897,2100428,-1.6094778,-1.9543658,9.374249,0.05009095,0.017104227,-0.015882496,84
1776161365936,2101028,-1.6022925,-1.91844,9.400596,0.013439035,0.0,-0.012217305,84
1776161365977,2100841,-1.5831321,-1.9783164,9.271262,-0.008552114,-0.0036651916,-0.0036651916,84
1776161366016,2100065,-1.619058,-1.9902917,9.391015,-0.009773844,-0.004886922,-0.002443461,84
1776161366057,2099616,-1.6430086,-1.9878967,9.347904,-0.009773844,-0.004886922,-0.002443461,84
1776161366097,2099519,-1.5280459,-2.0286126,9.338325,-0.009773844,-0.004886922,-0.002443461,84
1776161366136,2099460,-1.616663,-1.9423906,9.381435,-0.013439035,0.002443461,0.008552114,84
1776161366177,2099721,-1.6573789,-1.9376005,9.371855,-0.017104227,-0.0012217305,0.010995574,84
1776161366216,2099950,-1.5855272,-2.0070572,9.376645,-0.012217305,0.002443461,0.009773844,84
1776161366257,2100014,-1.5639716,-2.0214274,9.3526945,-0.012217305,0.002443461,0.009773844,84
1776161366300,2100180,-1.5783421,-2.045378,9.376645,-0.012217305,0.002443461,0.009773844,84
1776161366338,2100439,-1.5975025,-1.9352055,9.376645,-0.012217305,0.002443461,0.007330383,84
1776161366377,2100851,-1.6358234,-1.9878967,9.34551,-0.0036651916,0.0036651916,0.007330383,84
1776161366418,2101244,-1.664564,-1.9974768,9.326349,-0.0061086523,0.0036651916,0.008552114,84
1776161366457,2101804,-1.5807371,-2.009452,9.362274,-0.0036651916,0.0036651916,0.008552114,84
1776161366498,2102384,-1.666959,-2.040588,9.38862,-0.0036651916,0.0036651916,0.008552114,84
1776161366537,2102946,-1.6310333,-2.0262175,9.34551,-0.0036651916,-0.002443461,0.002443461,84
1776161366576,2103564,-1.5975025,-2.0645385,9.391015,-0.0012217305,0.0,-0.0012217305,84
1776161366619,2104122,-1.6262431,-1.9399955,9.371855,-0.004886922,-0.0012217305,0.002443461,84
1776161366657,2104837,-1.6118728,-1.9567609,9.36946,-0.004886922,0.0,0.0036651916,84
1776161366697,2104725,-1.6358234,-2.004662,9.357485,-0.004886922,0.0,0.0036651916,84
1776161366738,2104029,-1.6142678,-1.9615511,9.357485,-0.008552114,-0.002443461,0.0,84
1776161366777,2103449,-1.6789343,-1.9831065,9.338325,0.0,0.002443461,0.0012217305,83
1776161366817,2103313,-1.6765393,-1.9759214,9.400596,-0.0012217305,0.0,0.002443461,83
1776161366857,2103147,-1.6286383,-1.9950818,9.395805,-0.0036651916,-0.0012217305,-0.0012217305,83
1776161366898,2103223,-1.6022925,-1.9711312,9.414966,-0.0036651916,-0.0012217305,-0.0012217305,83
1776161366937,2103336,-1.6238481,-2.0070572,9.386225,-0.002443461,-0.0012217305,-0.0012217305,83
1776161366978,2103430,-1.6693542,-2.0525632,9.367064,-0.002443461,0.0,-0.0012217305,83
1776161367018,2103489,-1.621453,-2.0286126,9.321559,0.0012217305,0.0,0.0,83
1776161367056,2103652,-1.6286383,-2.0214274,9.386225,-0.0012217305,-0.0012217305,0.0,83
1776161367099,2103652,-1.6286383,-2.0214274,9.386225,-0.0012217305,-0.0012217305,0.0,83
1776161367137,2104313,-1.6286383,-2.040588,9.37904,-0.0036651916,0.002443461,0.0012217305,83
1776161367178,2104763,-1.5687618,-2.0118473,9.335929,0.0012217305,0.0012217305,0.0061086523,83
1776161367219,2105261,-1.664564,-1.9926867,9.371855,0.0036651916,0.0012217305,0.0036651916,83
1776161367261,2105752,-1.6070827,-1.9735262,9.335929,0.0,0.0,-0.004886922,83
1776161367297,2106238,-1.6549839,-2.0262175,9.38383,0.0,0.0,-0.004886922,83
1776161367337,2106737,-1.6118728,-1.9471806,9.3598795,0.0,0.0,-0.004886922,83
1776161367378,2107355,-1.666959,-2.0310078,9.3503,0.0012217305,0.0012217305,0.0,83
1776161367416,2107614,-1.6094778,-1.9878967,9.37904,0.004886922,0.0012217305,-0.0012217305,83
1776161367457,2107164,-1.5903172,-1.9711312,9.36946,0.002443461,0.0,0.0,83
1776161367507,2106459,-1.616663,-1.9735262,9.307188,-0.0012217305,-0.0036651916,0.0,83
1776161367541,2106158,-1.616663,-1.999872,9.400596,0.0036651916,0.004886922,0.0,83
1776161367590,2106003,-1.6358234,-2.0262175,9.355089,-0.0012217305,-0.002443461,-0.0012217305,83
1776161367619,2106024,-1.6358234,-2.0262175,9.355089,0.0,-0.0036651916,-0.0012217305,83
1776161367657,2106024,-1.5783421,-1.9304153,9.326349,0.002443461,-0.0012217305,0.0,83
1776161367702,2106062,-1.6693542,-1.9807115,9.367064,0.002443461,-0.0012217305,0.0,83
1776161367753,2106128,-1.6765393,-2.0238225,9.38862,0.002443461,-0.0012217305,0.0,83
1776161367779,2106460,-1.6118728,-1.9399955,9.38383,0.002443461,-0.0012217305,0.0,83
1776161367820,2106460,-1.6118728,-1.9399955,9.38383,0.002443461,-0.0012217305,0.0,83
1776161367858,2106784,-1.5424162,-2.0262175,9.328744,0.002443461,-0.0012217305,0.0,83
1776161367899,2107103,-1.621453,-2.0645385,9.3598795,0.002443461,-0.0012217305,0.0,83
1776161367938,2107591,-1.6477987,-2.009452,9.393411,0.002443461,-0.0012217305,0.0,83
1776161367977,2107990,-1.6334283,-1.9950818,9.374249,0.002443461,-0.0012217305,0.0,83
1776161368024,2108445,-1.6238481,-2.0310078,9.328744,0.0,-0.0036651916,-0.0012217305,83
1776161368056,2108904,-1.5783421,-1.999872,9.3503,-0.002443461,-0.0012217305,0.0,83
1776161368097,2109441,-1.6262431,-1.9950818,9.362274,0.0036651916,-0.0012217305,-0.0012217305,83
1776161368162,2110001,-1.6118728,-2.0669334,9.302399,0.0036651916,-0.0012217305,-0.0012217305,83
1776161368180,2110161,-1.6118728,-2.0669334,9.302399,0.0036651916,-0.0012217305,-0.0012217305,83
1776161368218,2109607,-1.5687618,-1.9543658,9.323954,0.0036651916,-0.0012217305,-0.0012217305,83
1776161368261,2109019,-1.6382184,-2.0477731,9.316769,0.0036651916,-0.0012217305,-0.0012217305,83
1776161368297,2108866,-1.6525887,-2.0717237,9.3598795,0.0036651916,-0.0012217305,-0.0012217305,83
1776161368336,2108763,-1.6022925,-1.9902917,9.290423,0.0036651916,-0.0012217305,-0.0012217305,83
1776161368391,2108673,-1.6549839,-2.040588,9.319163,0.0036651916,-0.0012217305,-0.0012217305,83
1776161368416,2108766,-1.5591816,-2.0357978,9.300003,0.0036651916,-0.0012217305,-0.0012217305,83
1776161368461,2108843,-1.6358234,-2.0166373,9.355089,0.0036651916,-0.0012217305,-0.0012217305,83
1776161368498,2108849,-1.6406134,-2.040588,9.386225,0.0036651916,-0.0012217305,-0.0012217305,83
1776161368537,2109028,-1.6118728,-2.0381927,9.319163,0.0036651916,-0.0012217305,-0.0012217305,83
1776161368581,2109140,-1.5783421,-2.0238225,9.347904,0.0012217305,-0.0012217305,-0.004886922,83
1776161368638,2109817,-1.5879222,-2.0142422,9.393411,0.0012217305,-0.002443461,-0.0036651916,83
1776161368656,2109817,-1.5879222,-2.0142422,9.393411,0.0012217305,-0.002443461,-0.0036651916,83
1776161368697,2110173,-1.6142678,-2.0477731,9.309584,-0.002443461,-0.0012217305,-0.0036651916,83
1776161368753,2110599,-1.6094778,-1.9831065,9.335929,0.004886922,-0.002443461,-0.0036651916,83
1776161368802,2110599,-1.6094778,-1.9831065,9.335929,0.004886922,-0.002443461,-0.0036651916,83
1776161368819,2111456,-1.6286383,-2.0357978,9.311978,0.004886922,-0.002443461,-0.0036651916,83
1776161368861,2111893,-1.6286383,-2.0357978,9.311978,0.004886922,-0.002443461,-0.0036651916,82
1776161368897,2111893,-1.6501937,-1.9615511,9.3598795,0.004886922,-0.002443461,-0.0036651916,82
1776161368936,2111893,-1.6501937,-1.9615511,9.3598795,0.004886922,-0.002443461,-0.0036651916,82
1776161368977,2111346,-1.6262431,-2.040588,9.391015,0.004886922,-0.002443461,-0.0036651916,82
1776161369023,2111062,-1.5615766,-2.0286126,9.362274,0.004886922,-0.002443461,-0.0036651916,82
1776161369065,2110899,-1.5663668,-2.0645385,9.381435,0.004886922,-0.002443461,-0.0036651916,82
1776161369099,2110865,-1.7004899,-1.9950818,9.40299,0.004886922,-0.002443461,-0.0036651916,82
1776161369145,2110968,-1.5927124,-2.0477731,9.362274,0.004886922,-0.002443461,-0.0036651916,82
1776161369191,2111091,-1.619058,-1.9759214,9.34551,0.004886922,-0.002443461,-0.0036651916,82
1776161369239,2111089,-1.621453,-1.9855015,9.297608,0.002443461,-0.0012217305,-0.002443461,82
1776161369258,2111089,-1.621453,-1.9855015,9.297608,0.002443461,0.0,-0.004886922,82
1776161369298,2111317,-1.6382184,-1.9902917,9.283237,0.0012217305,-0.0012217305,-0.0012217305,82
1776161369349,2111874,-1.6094778,-2.0190325,9.292818,0.0012217305,-0.0012217305,-0.0012217305,82
1776161369380,2111874,-1.619058,-2.0166373,9.328744,0.0012217305,-0.0012217305,-0.0012217305,82
1776161369436,2112573,-1.6262431,-1.9591559,9.40299,0.0012217305,-0.0012217305,-0.0012217305,82
1776161369465,2112573,-1.6262431,-1.9591559,9.40299,0.0012217305,-0.0012217305,-0.0012217305,82
1776161369499,2112970,-1.6238481,-1.9902917,9.391015,0.0012217305,-0.0012217305,-0.0012217305,82
1776161369536,2113362,-1.5879222,-2.0142422,9.340719,0.007330383,0.0,-0.002443461,82
1776161369576,2113763,-1.6118728,-2.0693285,9.338325,0.0061086523,-0.002443461,-0.0012217305,82
1776161369630,2114264,-1.5711569,-2.002267,9.340719,0.0061086523,-0.002443461,-0.0012217305,82
1776161369659,2113950,-1.6286383,-2.0118473,9.36467,0.0061086523,-0.002443461,-0.0012217305,82
1776161369700,2112730,-1.6549839,-2.0429828,9.362274,0.0061086523,-0.002443461,-0.0012217305,82
1776161369741,2112515,-1.6525887,-2.004662,9.343114,0.0061086523,-0.002443461,-0.0012217305,82
1776161369778,2112246,-1.7316257,-2.0525632,9.391015,0.0061086523,-0.002443461,-0.0012217305,82
1776161369817,2112202,-1.6430086,-2.0813038,9.367064,0.0061086523,-0.002443461,-0.0012217305,82
1776161369857,2112218,-1.6142678,-1.9519708,9.36467,0.002443461,-0.0012217305,-0.0012217305,82
1776161369899,2112242,-1.6573789,-1.9974768,9.367064,0.0036651916,0.0,-0.0012217305,82
1776161369939,2112172,-1.5807371,-2.0310078,9.412571,0.0036651916,0.0,-0.0012217305,82
1776161369976,2112178,-1.6549839,-2.0334027,9.333534,0.0036651916,0.0,-0.0012217305,82
1776161370016,2112418,-1.6070827,-2.0286126,9.321559,0.0036651916,0.0,-0.0012217305,82
1776161370057,2112631,-1.6142678,-1.9878967,9.340719,0.0036651916,0.0,-0.0012217305,82
1776161370096,2112937,-1.6286383,-2.045378,9.400596,0.0036651916,0.0,-0.0012217305,82
1776161370144,2113234,-1.7028849,-1.9615511,9.36467,-0.002443461,-0.0012217305,0.002443461,82
1776161370176,2113583,-1.6477987,-2.0070572,9.367064,-0.0061086523,0.002443461,-0.002443461,82
1776161370216,2113904,-1.6022925,-2.0381927,9.36467,-0.0061086523,0.002443461,-0.002443461,82
1776161370260,2114328,-1.6477987,-2.0166373,9.319163,-0.0061086523,0.002443461,-0.002443461,82
1776161370296,2114766,-1.6238481,-1.9878967,9.414966,-0.0061086523,0.002443461,-0.002443461,82
1776161370339,2114832,-1.6837245,-1.999872,9.3503,-0.0061086523,0.002443461,-0.002443461,82
1776161370383,2114832,-1.6334283,-2.0765138,9.386225,-0.0061086523,0.002443461,-0.002443461,82
1776161370426,2113422,-1.5927124,-1.9423906,9.326349,-0.0061086523,0.002443461,-0.002443461,82
1776161370457,2113422,-1.5927124,-1.9423906,9.326349,-0.0061086523,0.002443461,-0.002443461,82
1776161370504,2113088,-1.6118728,-2.0573533,9.414966,-0.0061086523,0.002443461,-0.002443461,82
1776161370536,2112775,-1.6358234,-2.0310078,9.374249,-0.0061086523,0.002443461,-0.002443461,82
1776161370585,2112532,-1.6430086,-2.0118473,9.340719,-0.0061086523,0.002443461,-0.002443461,82
1776161370625,2112532,-1.5903172,-1.9471806,9.38862,-0.0061086523,0.002443461,-0.002443461,82
1776161370689,2112218,-1.5975025,-2.0741186,9.38383,-0.0012217305,-0.0012217305,0.0,82
1776161370700,2112218,-1.6118728,-2.0118473,9.374249,-0.0012217305,-0.0012217305,0.0,82
1776161370738,2112214,-1.6501937,-2.0214274,9.36946,0.0,-0.0012217305,-0.0012217305,82
1776161370776,2112364,-1.5735519,-1.9783164,9.417361,-0.0012217305,-0.0012217305,-0.0012217305,82
1776161370819,2112793,-1.5998975,-2.0142422,9.362274,-0.0012217305,-0.0012217305,-0.0012217305,82
1776161370860,2112793,-1.5998975,-2.0142422,9.362274,-0.0012217305,-0.0012217305,-0.0012217305,82
1776161370902,2113104,-1.5496013,-2.0142422,9.400596,-0.0012217305,-0.0012217305,-0.0012217305,82
1776161370936,2113347,-1.6142678,-1.9974768,9.376645,-0.0012217305,-0.0012217305,-0.0012217305,82
1776161370980,2113641,-1.6501937,-2.0118473,9.34551,-0.0012217305,-0.0012217305,-0.0012217305,82
1776161371016,2114035,-1.6238481,-1.9902917,9.3526945,-0.0012217305,-0.0012217305,-0.0012217305,82
1776161371057,2114493,-1.5903172,-2.002267,9.367064,-0.0012217305,-0.0012217305,-0.0012217305,82
1776161371096,2114911,-1.6501937,-1.9615511,9.3503,-0.0012217305,-0.0012217305,-0.0012217305,82
1776161371137,2115261,-1.6454036,-2.002267,9.376645,-0.0012217305,-0.0012217305,-0.0012217305,82
1776161371176,2114706,-1.6046877,-1.9902917,9.381435,0.0036651916,0.0012217305,0.0036651916,82
1776161371217,2113730,-1.659774,-2.050168,9.328744,-0.002443461,-0.0012217305,0.004886922,82
1776161371275,2112780,-1.5807371,-2.0166373,9.414966,-0.002443461,-0.0012217305,0.004886922,82
1776161371298,2112780,-1.6310333,-2.0357978,9.431731,-0.002443461,-0.0012217305,0.004886922,82
1776161371337,2112457,-1.5998975,-1.9591559,9.3598795,-0.002443461,-0.0012217305,0.004886922,82
1776161371411,2112185,-1.621453,-1.9878967,9.307188,-0.002443461,-0.0012217305,0.004886922,82
1776161371433,2112004,-1.621453,-1.9687362,9.37904,-0.002443461,-0.0012217305,0.004886922,82
1776161371458,2112004,-1.6046877,-2.0693285,9.38862,-0.002443461,-0.0012217305,0.004886922,82
1776161371497,2111930,-1.6525887,-1.9471806,9.431731,-0.002443461,-0.0012217305,0.004886922,82
1776161371542,2111842,-1.6525887,-1.9471806,9.431731,-0.002443461,-0.0012217305,0.0,82
1776161371580,2111914,-1.6525887,-2.0357978,9.410175,-0.0036651916,0.0,0.0,82
1776161371619,2112068,-1.5783421,-1.9735262,9.374249,-0.0036651916,0.0,0.0,82
1776161371660,2112343,-1.6454036,-2.0190325,9.3982,-0.0036651916,0.0,0.0,82
1776161371698,2112606,-1.5663668,-1.9831065,9.40299,-0.0036651916,0.0,0.0,82
1776161371741,2112843,-1.6741443,-2.0717237,9.40299,-0.0036651916,0.0,0.0,82
1776161371787,2113158,-1.5998975,-2.0238225,9.376645,-0.0036651916,0.0,0.0,82
1776161371821,2113510,-1.5855272,-2.0597484,9.333534,-0.0036651916,0.0,0.0,82
1776161371857,2113937,-1.5759469,-1.999872,9.338325,-0.0036651916,0.0,0.0,82
1776161371910,2114644,-1.6262431,-1.999872,9.331139,0.0,0.0036651916,0.0012217305,82
1776161371951,2114644,-1.6070827,-1.9783164,9.347904,0.0,0.0012217305,0.002443461,82
1776161371977,2113985,-1.662169,-2.0070572,9.38383,-0.0012217305,0.0036651916,0.0012217305,82
1776161372021,2112957,-1.5975025,-2.124415,9.38383,-0.0012217305,0.0036651916,0.0012217305,82
1776161372070,2112388,-1.532836,-1.9399955,9.36467,-0.0012217305,0.0036651916,0.0012217305,82
1776161372097,2111926,-1.6070827,-2.0597484,9.395805,-0.0012217305,0.0036651916,0.0012217305,82
1776161372136,2111554,-1.5831321,-2.002267,9.326349,-0.0012217305,0.0036651916,0.0012217305,82
1776161372180,2111368,-1.6286383,-2.0166373,9.386225,-0.0012217305,0.0036651916,0.0012217305,82
1776161372217,2111263,-1.662169,-2.086094,9.426941,-0.0012217305,0.0036651916,0.0012217305,82
1776161372256,2110902,-1.6477987,-2.0765138,9.347904,-0.0012217305,0.0036651916,0.0012217305,82
1776161372314,2110594,-1.6549839,-2.0286126,9.362274,0.0012217305,-0.002443461,0.0,82
1776161372339,2110594,-1.6477987,-2.050168,9.38862,0.0,-0.0012217305,0.0,82
1776161372378,2110597,-1.5927124,-2.0214274,9.393411,0.0,-0.0012217305,0.0,82
1776161372427,2110664,-1.5975025,-2.045378,9.36946,0.0,-0.0012217305,0.0,82
1776161372460,2110813,-1.5448112,-2.0669334,9.424546,0.0,-0.0012217305,0.0,82
1776161372515,2110950,-1.6046877,-2.0118473,9.4508915,0.0,-0.0012217305,0.0,82
1776161372547,2111076,-1.7124652,-2.002267,9.630521,0.0,-0.0012217305,0.0,82
1776161372578,2111330,-1.7124652,-2.002267,9.630521,0.0,-0.0012217305,0.0,82
1776161372623,2111499,-1.5591816,-2.2321923,9.376645,0.0,-0.0012217305,0.0,82
1776161372658,2111844,-1.7076751,-1.7555761,9.831706,0.0,-0.0012217305,0.0,82
1776161372696,2112119,-1.6813295,-2.0070572,10.277186,0.0,-0.0012217305,0.0,82
1776161372741,2111371,-0.5867888,-2.6489322,11.383702,0.0,-0.0012217305,0.0,82
1776161372779,2110324,-0.36404854,-3.6404853,10.23168,0.0,-0.0012217305,0.0,82
1776161372839,2109517,-0.469431,-4.301521,11.096295,0.0,-0.0012217305,0.0,82
1776161372857,2108761,-0.3329128,-4.5410266,11.146591,0.0,-0.0012217305,0.0,82
1776161372897,2108709,0.49577662,-4.816458,10.725061,0.0,-0.0012217305,0.0,82
1776161372963,2108709,0.49577662,-4.816458,10.725061,0.0,-0.0012217305,0.0,82
1776161373051,2107283,1.4993051,-5.2212224,9.666447,-0.3567453,-1.7006488,-2.2088888,82
1776161373118,2107283,3.9829783,-5.7026286,7.0893664,0.22113322,-1.1679744,-2.5130997,82
1776161373138,2104947,5.197272,-4.3805575,6.052307,0.22113322,-1.1679744,-2.5130997,82
1776161373177,2103971,5.6188016,-3.369844,5.7313695,0.25045475,-0.91507614,-2.4495697,82
1776161373220,2103138,6.049912,-2.7638948,5.7026286,0.24801129,-0.8503244,-2.4715607,82
1776161373258,2102764,6.492997,-1.8896993,5.700234,0.43860126,-0.79534656,-2.371379,82
1776161373307,2102661,6.6271205,-0.86701035,5.5158143,0.3371976,-0.8063421,-2.1966715,82
1776161373341,2103002,6.61275,0.6131344,5.6930485,0.02565634,-0.80756384,-1.9022343,82
1776161373382,2103609,6.8378854,1.1735775,5.283494,0.03176499,-0.7672467,-1.7641789,82
1776161373417,2104692,6.5864043,1.9040697,4.952976,-0.07574729,-0.70249504,-1.1691961,82
1776161373457,2105742,6.5504785,2.3711057,4.7949023,-0.07574729,-0.70249504,-1.1691961,82
1776161373525,2105859,7.2258844,2.507624,4.126682,-0.07574729,-0.70249504,-1.1691961,82
1776161373550,2105443,7.2258844,2.507624,4.126682,-0.81245077,-0.13561209,-0.36163223,82
1776161373576,2104946,7.640229,2.2753034,4.655989,-0.7770206,-0.035430185,-0.29565877,82
1776161373619,2104471,8.083315,2.2513528,4.636829,-0.548557,-0.056199603,-0.26511553,82
1776161373662,2103896,8.181512,1.8992796,4.9721365,-0.058643065,-0.080634214,-0.25167647,82
1776161373697,2103600,8.162352,2.2297974,5.192482,-0.09162979,-0.0842994,-0.07941248,82
1776161373743,2103606,8.016253,2.347155,5.072729,-0.058643065,-0.047647487,-0.02076942,82
1776161373777,2103789,8.171931,2.174711,5.1421857,-0.058643065,-0.073303826,-0.057421334,82
1776161373822,2104162,8.102475,1.5783421,5.154161,0.19792034,-0.07574729,-0.10629055,81
1776161373858,2104699,8.102475,2.0357978,4.986507,0.13194689,-0.062308256,-0.02687807,81
1776161373896,2105542,7.973142,2.378291,4.778137,0.105068825,-0.05497787,0.047647487,81
1776161373936,2106293,8.054574,2.3351798,4.5577917,0.1001819,-0.043982297,0.09162979,81
1776161373979,2107093,8.0905,2.2657232,4.5458164,-0.034208454,-0.0061086523,0.13927728,81
1776161374017,2107954,8.07134,2.2944639,4.6655693,0.028099801,-0.02321288,0.19181168,81
1776161374058,2108866,8.107265,2.1579456,4.811668,0.15149458,-0.05375614,0.21013765,81
1776161374097,2109791,8.583881,2.1962664,4.7949023,0.09162979,-0.028099801,0.20158553,81
1776161374136,2110714,8.792252,1.9088597,4.6991,0.28099802,-0.02443461,0.06719518,81
1776161374177,2111219,9.228151,1.8010823,4.8332233,0.16249016,-0.03176499,-0.09040806,81
1776161374218,2111628,9.426941,1.9423906,4.857174,0.32620203,-0.029321533,-0.267559,81
1776161374259,2111573,9.103608,2.2513528,4.636829,0.2724459,-0.02443461,-0.22235495,81
1776161374298,2111080,8.5264,2.9483142,4.605693,0.18936823,-0.02321288,-0.17470746,81
1776161374337,2110960,8.488079,2.521994,4.478755,0.14538592,-0.019547688,-0.2406809,81
1776161374377,2111230,8.528795,1.8178476,4.229669,0.22357668,-0.0061086523,-0.29565877,81
1776161374418,2111624,7.8246484,2.9602895,4.26799,0.10140363,-0.06352998,-0.1600467,81
1776161374459,2112159,7.290551,2.8094008,3.9446576,-0.05375614,-0.034208454,0.004886922,81
1776161374496,2112834,6.8498607,2.7183888,3.7793987,-0.02687807,0.065973446,0.17715092,81
1776161374537,2113072,7.158823,2.8932278,4.004534,-0.28221974,0.06719518,0.29932398,81
1776161374577,2113422,7.9396114,2.6680925,4.68473,-0.08674286,-0.037873644,0.31520647,81
1776161374618,2113841,8.622202,2.4070315,5.032013,-0.037873644,-0.10629055,0.28588495,81
1776161374657,2114188,8.825782,2.2753034,4.861964,0.062308256,-0.08552113,0.22602014,81
1776161374696,2114475,8.861708,2.1914763,4.7110753,0.23335053,-0.057421334,0.18692477,81
1776161374737,2114866,8.198277,1.9926867,4.526656,0.12217305,-0.05009095,0.344528,81
1776161374779,2115474,8.035414,2.6776729,4.68952,0.30176744,-0.030543262,0.6084218,81
1776161374817,2116167,7.6785502,2.6058211,4.3733726,0.5815437,0.058643065,1.047023,81
1776161374857,2116966,7.685735,2.4597228,4.016509,0.9957104,0.3115413,1.4807373,81
1776161374897,2117645,7.7791424,2.4812782,3.9805834,0.9126327,0.63041294,1.9339994,81
1776161374938,2118095,7.7623773,2.1052544,4.009324,0.77946407,0.9419542,2.2162192,81
1776161374977,2118512,7.575563,0.76402295,3.8847811,1.2547172,1.2425,2.3530529,81
1776161375019,2118447,7.149243,-0.29698697,4.3087063,1.2315043,1.690875,2.2650883,81
1776161375057,2117285,7.03907,-0.8310845,4.46199,1.065349,2.2308798,2.2748623,81
1776161375099,2116018,6.265467,-1.106516,5.2619386,1.6713274,2.4764478,2.0744984,81
1776161375138,2115082,5.4248023,-1.999872,6.4594665,0.8527679,2.8356364,1.9498819,81
1776161375178,2114411,5.032013,-0.53170246,8.478498,0.6267477,2.5778513,1.8558086,81
1776161375217,2114133,3.8847811,-3.0896225,8.634177,2.3640485,2.701246,1.5222762,81
1776161375258,2114331,3.283622,-2.3303897,9.714348,0.27977628,2.5094345,1.1472049,81
1776161375297,2115259,2.6058211,0.21555506,11.350171,-0.081855945,2.3591616,1.0714576,81
1776161375338,2116093,2.002267,-2.8405366,10.370593,0.9297369,1.8643607,0.8246681,81
1776161375377,2119549,2.0765138,-0.6778009,11.32143,0.064751714,1.6041322,0.80756384,81
1776161375417,2121224,0.99394834,-0.9676027,11.034024,0.25411993,1.1594223,0.5546656,81
1776161375458,2123331,0.5508629,-0.92928183,11.469924,-0.4166101,0.7831292,0.43982297,81
1776161375497,2124490,0.6634306,-0.84066474,11.041209,-0.41416663,0.54733527,0.376293,81
1776161375538,2126370,-0.25866607,-1.791502,10.011334,-0.07086037,0.4886922,0.2284636,81
1776161375578,2128185,-0.3975793,-1.1663923,9.228151,-0.38728857,0.48991394,0.119729586,81
1776161375617,2129787,-0.8598252,-0.89335597,9.949063,-0.5448918,0.28344148,0.2687807,81
1776161375658,2131166,-1.1783676,-0.9747879,10.229285,-0.55833083,0.10873401,0.25411993,81
1776161375697,2131822,-1.8202426,-1.7364157,10.150249,-0.38362336,0.06963864,0.23457226,81
1776161375737,2130685,-1.8825141,-1.9902917,9.858051,0.05131268,0.1001819,0.13805555,81
1776161375779,2128770,-2.6130064,-2.0765138,10.25084,-0.030543262,0.06963864,0.040317107,81
1776161375818,2126936,-2.0621433,-0.77839327,10.035285,-0.010995574,0.10140363,0.04153884,82
1776161375856,2125078,-1.8896993,-1.3915277,9.232942,0.0842994,0.118507855,0.05131268,82
1776161375898,2123270,-1.5040953,-1.3723671,9.048522,-0.2406809,0.18081611,0.0036651916,82
1776161375940,2121619,-1.0897505,-1.7555761,9.232942,-0.267559,0.12705997,-0.0036651916,82
1776161375977,2120169,-0.63708496,-1.5112804,9.264077,-0.31764993,0.103847094,-0.0012217305,82
1776161376018,2118247,-1.4370337,-1.8441932,9.412571,-0.18325958,0.052534413,0.02687807,82
1776161376057,2116446,-1.659774,-1.6382184,9.513164,-0.14172074,0.039095376,0.081855945,82
1776161376101,2114764,-2.6058211,-1.7340207,10.25084,-0.10262536,-0.10262536,0.0720821,82
1776161376139,2113577,-2.471698,-1.662169,9.419756,-0.16982053,-0.012217305,0.032986723,82
1776161376180,2112207,-1.748391,-1.8441932,9.501188,-0.15271631,-0.06352998,0.02443461,82
1776161376217,2111004,-1.7436008,-2.5004387,9.347904,-0.0720821,-0.07086037,0.02565634,82
1776161376257,2111004,-1.7436008,-2.5004387,9.347904,-0.10751228,-0.047647487,0.02321288,82
1776161376296,2109426,-1.6501937,-2.2441676,9.316769,-0.06352998,-0.030543262,0.037873644,82
1776161376336,2106952,-1.7124652,-2.0166373,9.37904,-0.040317107,-0.017104227,0.02076942,82
1776161376377,2106952,-1.7124652,-2.0166373,9.37904,-0.12217305,-0.047647487,0.015882496,82
1776161376417,2105386,-1.619058,-2.1651309,9.292818,-0.16126843,-0.06841691,0.019547688,82
1776161376457,2103810,-1.6933048,-2.3279946,9.3526945,-0.111177474,-0.0720821,0.02687807,82
1776161376497,2103810,-1.6933048,-2.3279946,9.3526945,-0.10873401,-0.043982297,0.0061086523,82
1776161376539,2096796,-1.664564,-2.3184144,9.321559,-0.061086524,-0.030543262,0.002443461,82
1776161376579,2093709,-1.7004899,-2.347155,9.290423,-0.057421334,-0.02443461,-0.004886922,82
1776161376617,2090927,-1.6262431,-2.337575,9.34551,-0.05009095,-0.02076942,0.0,82
1776161376656,2090927,-1.6262431,-2.337575,9.34551,-0.039095376,-0.019547688,0.004886922,82
1776161376698,2088527,-1.6406134,-2.3974512,9.340719,-0.040317107,-0.010995574,-0.002443461,82
1776161376738,2084827,-1.5591816,-2.433377,9.288028,-0.040317107,-0.014660766,0.004886922,82
1776161376776,2082992,-1.619058,-2.5243893,9.295213,-0.017104227,-0.0036651916,0.017104227,82
1776161376816,2082992,-1.619058,-2.5243893,9.295213,-0.018325957,-0.0012217305,0.017104227,82
1776161376857,2081342,-1.5855272,-2.474093,9.290423,-0.013439035,0.002443461,0.013439035,82
1776161376896,2080210,-1.6885146,-2.433377,9.278448,-0.010995574,0.007330383,0.010995574,82
1776161376938,2078506,-1.6525887,-2.4429574,9.278448,-0.007330383,0.004886922,0.0036651916,82
1776161376978,2077944,-1.6406134,-2.4118216,9.321559,-0.015882496,-0.0012217305,0.002443461,82
1776161377016,2077475,-1.6477987,-2.507624,9.340719,-0.004886922,-0.0036651916,0.0036651916,82
1776161377056,2077475,-1.6477987,-2.507624,9.340719,-0.015882496,-0.007330383,-0.002443461,82
1776161377098,2077231,-1.6382184,-2.4429574,9.292818,-0.013439035,-0.007330383,-0.0061086523,82
1776161377136,2077101,-1.5998975,-2.4812782,9.36946,0.002443461,-0.0036651916,-0.0036651916,82
1776161377177,2077126,-1.662169,-2.5100188,9.292818,-0.010995574,0.0,0.0,82
1776161377216,2077238,-1.5903172,-2.5195992,9.254498,-0.004886922,0.0036651916,0.0012217305,82
1776161377258,2077029,-1.6142678,-2.5315745,9.297608,-0.007330383,0.002443461,0.002443461,82
1776161377297,2072216,-1.5687618,-2.474093,9.295213,0.0,0.0012217305,0.008552114,82
1776161377338,2072216,-1.5687618,-2.474093,9.295213,-0.009773844,0.0,0.004886922,82
1776161377377,2070377,-1.6286383,-2.4429574,9.371855,0.004886922,0.002443461,0.007330383,82
1776161377418,2068886,-1.6262431,-2.5267842,9.338325,-0.0061086523,0.0036651916,0.004886922,82
1776161377458,2067731,-1.6142678,-2.512414,9.247312,-0.002443461,0.0012217305,0.002443461,82
1776161377496,2066366,-1.6861196,-2.4788833,9.319163,-0.007330383,-0.002443461,0.0012217305,82
1776161377536,2066366,-1.6861196,-2.4788833,9.319163,-0.008552114,0.0,-0.002443461,82
1776161377579,2065713,-1.666959,-2.5195992,9.2688675,-0.0012217305,0.0012217305,-0.0036651916,82
1776161377616,2065109,-1.6693542,-2.5387595,9.273658,-0.0036651916,0.0,0.0012217305,82
1776161377658,2064886,-1.5927124,-2.5315745,9.297608,-0.002443461,-0.002443461,-0.0012217305,82
1776161377700,2064886,-1.5927124,-2.5315745,9.297608,-0.0012217305,-0.0036651916,0.0012217305,82
1776161377736,2065056,-1.619058,-2.469303,9.273658,-0.002443461,0.0,0.002443461,82
1776161377776,2065348,-1.6382184,-2.517204,9.2688675,-0.004886922,0.0012217305,-0.0012217305,82
1776161377817,2065690,-1.6238481,-2.55792,9.307188,0.0,-0.002443461,-0.0036651916,82
1776161377858,2066615,-1.6046877,-2.514809,9.278448,0.0061086523,0.0036651916,0.0,82
1776161377897,2066615,-1.6046877,-2.514809,9.278448,0.0012217305,-0.0012217305,-0.004886922,82
1776161377939,2067289,-1.6094778,-2.5651052,9.244917,0.0036651916,0.0,0.002443461,82
1776161377976,2067736,-1.5591816,-2.55792,9.307188,0.0036651916,0.002443461,0.0012217305,82
1776161378016,2066719,-1.5975025,-2.5004387,9.285633,0.004886922,-0.0036651916,0.0036651916,82
1776161378057,2064876,-1.616663,-2.56271,9.237732,-0.002443461,-0.0012217305,-0.0012217305,82
1776161378097,2063743,-1.619058,-2.4932535,9.302399,0.0061086523,0.0036651916,0.0,82
1776161378145,2063093,-1.6142678,-2.4573276,9.311978,-0.002443461,0.0036651916,0.0012217305,82
1776161378177,2062620,-1.6454036,-2.5267842,9.331139,0.002443461,-0.002443461,-0.002443461,82
1776161378217,2062620,-1.6454036,-2.5267842,9.331139,-0.007330383,-0.002443461,-0.002443461,82
1776161378258,2062629,-1.7028849,-2.5100188,9.280843,0.0061086523,-0.0012217305,-0.0012217305,82
1776161378296,2062442,-1.6406134,-2.5315745,9.240127,-0.004886922,-0.0036651916,-0.0012217305,82
1776161378338,2062348,-1.6286383,-2.5195992,9.295213,0.002443461,-0.0012217305,-0.002443461,82
1776161378379,2062584,-1.6310333,-2.4477475,9.288028,-0.002443461,-0.0012217305,0.0,82
1776161378418,2063744,-1.6741443,-2.423797,9.288028,-0.0012217305,0.0,0.0,82
1776161378456,2063744,-1.6741443,-2.423797,9.288028,-0.0012217305,0.0012217305,-0.0012217305,82
1776161378498,2064483,-1.537626,-2.474093,9.292818,-0.0012217305,-0.004886922,-0.004886922,82
1776161378537,2065195,-1.664564,-2.4980435,9.230547,0.0036651916,-0.0012217305,-0.0012217305,82
1776161378578,2066048,-1.6262431,-2.5004387,9.247312,0.0012217305,0.0,-0.0012217305,82
1776161378619,2066927,-1.5807371,-2.4908586,9.237732,0.0012217305,-0.002443461,0.0,82
1776161378658,2067919,-1.6549839,-2.4836733,9.285633,-0.0012217305,0.0,0.0012217305,82
1776161378698,2066562,-1.6070827,-2.5100188,9.273658,0.002443461,0.0,0.0,82
1776161378738,2066562,-1.6070827,-2.5100188,9.273658,-0.009773844,-0.002443461,-0.002443461,82
1776161378776,2065650,-1.6430086,-2.4597228,9.285633,0.0061086523,0.002443461,0.0,82
1776161378819,2065144,-1.5663668,-2.4980435,9.304793,-0.002443461,0.0012217305,0.002443461,82
1776161378860,2064879,-1.6262431,-2.4501424,9.340719,0.0012217305,-0.002443461,0.0,82
1776161378897,2064953,-1.5951074,-2.512414,9.295213,-0.004886922,-0.002443461,-0.0012217305,82
1776161378937,2065276,-1.621453,-2.476488,9.316769,0.0012217305,-0.0012217305,0.0,82
1776161378976,2065444,-1.619058,-2.5675,9.288028,-0.0012217305,0.0012217305,0.0,82
1776161379016,2065699,-1.5903172,-2.4908586,9.321559,0.0012217305,0.0012217305,-0.0012217305,82
1776161379057,2066217,-1.6070827,-2.5004387,9.2688675,-0.0012217305,-0.002443461,-0.002443461,82
1776161379096,2067679,-1.5998975,-2.438167,9.335929,0.0,-0.002443461,-0.0012217305,82
1776161379138,2067679,-1.5998975,-2.438167,9.335929,0.0,-0.0012217305,0.0012217305,82
1776161379176,2068663,-1.5951074,-2.512414,9.302399,-0.002443461,0.0,0.0,82
1776161379218,2069612,-1.6334283,-2.4980435,9.280843,-0.0012217305,-0.0036651916,-0.004886922,82
1776161379260,2070633,-1.6262431,-2.507624,9.223361,0.0036651916,0.0,-0.0036651916,82
1776161379298,2071726,-1.6525887,-2.4836733,9.237732,0.0,0.0,-0.0036651916,82
1776161379337,2072840,-1.5040953,-2.476488,9.276052,0.0,-0.0036651916,0.0,82
1776161379376,2074022,-1.5663668,-2.5028336,9.309584,0.0012217305,0.0,0.0,82
1776161379418,2074409,-1.6142678,-2.521994,9.292818,0.0012217305,-0.0012217305,0.0012217305,82
1776161379457,2073787,-1.6789343,-2.4908586,9.297608,-0.0061086523,-0.002443461,-0.0012217305,82
1776161379502,2073265,-1.6118728,-2.474093,9.280843,0.0036651916,0.0012217305,0.0,82
1776161379536,2073239,-1.6118728,-2.474093,9.280843,0.0012217305,0.0036651916,0.0012217305,82
1776161379581,2073210,-1.5711569,-2.4884634,9.276052,0.0012217305,0.0012217305,0.0,82
1776161379618,2073473,-1.6094778,-2.4860682,9.326349,-0.004886922,-0.0012217305,0.0,82
1776161379657,2074039,-1.5903172,-2.514809,9.271262,0.0012217305,0.0012217305,-0.0012217305,82
1776161379696,2074581,-1.6046877,-2.430982,9.304793,0.0012217305,0.0,0.0,82
1776161379742,2075073,-1.6980948,-2.5483398,9.271262,-0.002443461,0.0,-0.0012217305,82
1776161379776,2075657,-1.6310333,-2.521994,9.309584,0.002443461,0.0012217305,-0.002443461,82
1776161379818,2076420,-1.6573789,-2.4932535,9.283237,-0.0012217305,0.0,-0.0012217305,81
1776161379862,2077316,-1.6310333,-2.5052288,9.273658,-0.0012217305,-0.0012217305,0.0012217305,81
1776161379897,2078339,-1.6118728,-2.5028336,9.319163,0.0,-0.0012217305,0.0012217305,81
1776161379938,2079426,-1.6142678,-2.469303,9.254498,0.0012217305,-0.0012217305,-0.0012217305,81
1776161379976,2080474,-1.6310333,-2.474093,9.271262,0.0,0.0,-0.004886922,81
1776161380017,2081550,-1.6094778,-2.4836733,9.304793,-0.0012217305,-0.0012217305,-0.0012217305,81
1776161380056,2082601,-1.6094778,-2.5267842,9.232942,0.0,-0.002443461,-0.002443461,81
1776161380098,2083878,-1.6549839,-2.5914507,9.314374,0.0,0.0012217305,0.0,81
1776161380136,2084791,-1.6118728,-2.5315745,9.300003,0.002443461,0.0,0.0012217305,81
1776161380177,2084641,-1.6382184,-2.5004387,9.266473,-0.009773844,-0.002443461,-0.002443461,81
1776161380219,2084439,-1.5711569,-2.469303,9.295213,0.008552114,0.002443461,0.0012217305,81
1776161380257,2084615,-1.5735519,-2.5459447,9.2616825,-0.002443461,0.002443461,0.002443461,81
1776161380297,2084960,-1.6334283,-2.55313,9.304793,0.0012217305,0.0,0.0,81
1776161380337,2085402,-1.5711569,-2.5291793,9.300003,-0.002443461,-0.002443461,0.0012217305,81
1776161380377,2086095,-1.6334283,-2.5195992,9.235336,0.0,-0.002443461,-0.0012217305,81
1776161380416,2086668,-1.6142678,-2.474093,9.247312,0.0012217305,0.002443461,0.002443461,81
1776161380457,2087285,-1.5591816,-2.4812782,9.2688675,-0.002443461,0.0012217305,-0.0012217305,81
1776161380496,2087981,-1.5735519,-2.4860682,9.259287,0.0,0.0,-0.002443461,81
1776161380537,2088853,-1.5879222,-2.4956486,9.302399,-0.0012217305,-0.002443461,-0.0012217305,81
1776161380584,2089676,-1.6430086,-2.5722904,9.297608,-0.002443461,0.0,0.0,81
1776161380616,2090659,-1.5879222,-2.466908,9.235336,0.0012217305,0.0,0.0,81
1776161380660,2091598,-1.619058,-2.5028336,9.266473,-0.0012217305,-0.002443461,-0.002443461,81
1776161380698,2092588,-1.5927124,-2.5291793,9.3526945,-0.002443461,-0.0012217305,-0.002443461,81
1776161380737,2093618,-1.6022925,-2.5004387,9.323954,0.0012217305,0.0,-0.002443461,81
1776161380776,2094673,-1.6693542,-2.4980435,9.259287,-0.0036651916,-0.0012217305,0.0012217305,81
1776161380816,2095762,-1.6430086,-2.517204,9.290423,0.002443461,0.002443461,0.002443461,81
1776161380856,2096686,-1.5304409,-2.5411546,9.256892,0.0036651916,0.0012217305,0.0036651916,81
1776161380896,2096797,-1.5831321,-2.5243893,9.319163,-0.008552114,-0.002443461,-0.0012217305,81
1776161380936,2096838,-1.5711569,-2.5195992,9.237732,0.004886922,0.0012217305,-0.0012217305,81
1776161380977,2097063,-1.6286383,-2.4429574,9.340719,0.0012217305,0.0012217305,0.0,81
1776161381017,2097443,-1.5639716,-2.5507348,9.271262,0.002443461,-0.002443461,0.0,81
1776161381056,2097897,-1.5807371,-2.521994,9.244917,-0.0061086523,-0.002443461,0.0,81
1776161381098,2098514,-1.5998975,-2.4645128,9.273658,0.002443461,0.0012217305,-0.0012217305,81
1776161381137,2099115,-1.6310333,-2.514809,9.292818,-0.002443461,0.0,0.0,81
1776161381177,2099670,-1.6046877,-2.5100188,9.259287,0.0,0.002443461,0.0036651916,81
1776161381216,2100285,-1.5879222,-2.4357722,9.283237,-0.002443461,0.0036651916,0.0,81
1776161381259,2101037,-1.6334283,-2.4956486,9.304793,0.002443461,0.0012217305,0.0061086523,81
1776161381299,2101791,-1.6118728,-2.5028336,9.252102,-0.0061086523,0.0012217305,0.002443461,81
1776161381339,2103510,-1.6837245,-2.474093,9.252102,0.0036651916,-0.0012217305,-0.0012217305,81
1776161381376,2104359,-1.616663,-2.5195992,9.237732,-0.0036651916,0.0012217305,-0.0012217305,81
1776161381416,2105211,-1.5687618,-2.4597228,9.264077,0.002443461,0.0012217305,-0.004886922,81
1776161381461,2106904,-1.5879222,-2.5243893,9.235336,-0.004886922,-0.0012217305,-0.0012217305,81
1776161381498,2106904,-1.5879222,-2.5243893,9.235336,0.0012217305,-0.0012217305,-0.0012217305,81
1776161381538,2106831,-1.619058,-2.5363646,9.292818,-0.0036651916,-0.002443461,0.0012217305,81
1776161381582,2106790,-1.6118728,-2.5387595,9.249707,-0.010995574,-0.0012217305,-0.002443461,81
1776161381619,2107016,-1.5663668,-2.4884634,9.249707,0.002443461,0.002443461,0.0036651916,81
1776161381659,2107366,-1.6693542,-2.5459447,9.288028,-0.004886922,0.0,0.0012217305,81
1776161381698,2107915,-1.6549839,-2.507624,9.225757,0.015882496,0.0036651916,-0.004886922,81
1776161381736,2108496,-1.662169,-2.5794754,9.297608,0.07696902,0.018325957,-0.017104227,81
1776161381776,2108988,-1.6286383,-2.5315745,9.36946,0.19792034,0.019547688,-0.029321533,81
1776161381817,2109510,-1.6238481,-2.512414,9.3982,0.089186326,-0.0061086523,-0.042760566,81
1776161381857,2110096,-1.535231,-2.2729082,9.283237,0.06719518,-0.0012217305,-0.028099801,81
1776161381898,2110689,-1.5040953,-2.4142165,9.228151,0.035430185,0.002443461,-0.014660766,81
1776161381937,2111490,-1.6334283,-2.3663156,9.252102,0.008552114,-0.0012217305,-0.008552114,81
1776161381977,2112249,-1.5735519,-2.3136244,9.173065,0.02076942,-0.0036651916,-0.007330383,81
1776161382017,2113229,-1.6142678,-2.34955,9.280843,0.16737708,-0.030543262,-0.02321288,81
1776161382056,2114199,-1.6933048,-2.4142165,9.484423,0.17715092,-0.14172074,-0.030543262,81
1776161382099,2115273,-1.5017003,-2.1316,9.685607,0.09285152,-0.24556783,-0.105068825,81
1776161382140,2116089,-1.4250585,-1.9950818,9.692792,0.2565634,-0.36163223,-0.14049901,81
1776161382179,2116413,-0.42871505,-2.4621177,10.241261,0.2406809,-0.6365216,-0.15271631,81
1776161382218,2116754,-0.28740674,-1.6861196,10.356223,0.43860126,-0.73548174,-0.21013765,81
1776161382260,2117353,-0.7209119,-2.7686849,9.905952,0.62796944,-0.92485,-0.20647246,81
1776161382296,2118061,-0.46224585,-1.9831065,10.01852,0.45937067,-1.0079277,-0.17592919,81
1776161382338,2119142,-0.13412315,-1.5519965,9.879607,0.15027285,-1.0384709,-0.095294975,81
1776161382378,2120577,-0.0383209,-1.2909353,9.647286,-0.018325957,-0.96883225,-0.008552114,81
1776161382421,2121650,-0.13172808,-1.2430341,9.237732,-0.013439035,-0.7831292,0.07086037,81
1776161382458,2122642,-0.18681438,-1.2430341,8.868893,0.31520647,-0.6243043,0.1685988,81
1776161382498,2123559,-0.102987416,-0.9508373,8.665314,0.64873886,-0.44226643,0.2443461,81
1776161382540,2124708,0.1796292,-1.0490346,8.775486,0.4361578,-0.31398472,0.40561453,81
1776161382577,2125902,1.0490346,-0.06706157,9.505978,0.09285152,-0.21502456,0.4886922,81
1776161382618,2127239,1.7172552,0.033530787,9.807755,0.17837265,-0.23457226,0.47036624,81
1776161382657,2128603,1.7220454,-0.7568377,10.111927,0.37995818,-0.34574974,0.46303585,81
1776161382697,2129969,1.4537991,-1.0729852,10.080791,0.16982053,-0.3555236,0.49602258,81
1776161382738,2131526,1.8274279,-0.52691233,9.688003,0.2761111,-0.43127087,0.6072,81
1776161382778,2132973,1.6693542,-0.21555506,9.750274,0.32620203,-0.4447099,0.7623598,81
1776161382818,2133723,1.7651564,0.1149627,9.630521,0.25045475,-0.3921755,0.90041536,82
1776161382859,2134158,1.7268355,0.29219687,9.594595,0.24923302,-0.3567453,1.0396926,82
1776161382896,2134929,1.7723416,0.22513528,9.577829,0.28221974,-0.29810223,1.1655309,82
1776161382937,2135520,1.9855015,0.045506068,9.431731,0.2968805,-0.26145032,1.2608259,82
1776161382976,2136178,1.9783164,-0.3209375,9.338325,0.15882497,-0.23701571,1.3243558,82
1776161383019,2136825,2.4405622,-0.38081393,9.216176,0.15515977,-0.18936823,1.3524556,82
1776161383056,2137283,2.8309565,-0.72570205,9.091633,0.18448131,-0.15760323,1.3548992,82
1776161383097,2137788,2.9099932,-1.0777752,9.18504,0.030543262,-0.10995574,1.3793337,82
1776161383140,2138182,3.1375237,-0.8454548,9.070078,0.080634214,-0.07574729,1.3707817,82
1776161383176,2138573,2.7016234,-1.28375,9.117979,0.058643065,-0.1563815,1.328021,82
1776161383216,2139148,2.4142165,-1.2885402,9.412571,-0.04886922,-0.12583824,1.2583824,82
1776161383257,2139655,2.5483398,-1.4705645,9.127559,0.015882496,-0.16493362,1.1117748,82
1776161383297,2140419,2.4405622,-2.129205,9.355089,-0.096516706,-0.12461651,0.9407325,82
1776161383337,2141176,2.601031,-2.1411803,9.094028,-0.056199603,-0.13805555,0.81245077,82
1776161383379,2141769,2.55792,-2.438167,9.14672,-0.043982297,-0.13805555,0.6585127,82
1776161383422,2142614,2.603426,-2.4549327,9.098819,-0.04642576,-0.10995574,0.43371433,82
1776161383457,2142963,2.507624,-2.7950306,9.094028,0.008552114,-0.059864793,0.18081611,82
1776161383497,2142647,2.6489322,-3.0465114,8.959906,0.012217305,0.043982297,-0.21746802,82
1776161383538,2142453,2.8309565,-3.2021902,8.981461,0.02443461,0.0842994,-0.4288274,82
1776161383579,2142495,2.8477218,-3.154289,8.885658,-0.047647487,0.080634214,-0.5705481,82
1776161383618,2142626,2.7638948,-2.7734752,8.969485,-0.02443461,0.065973446,-0.68416905,82
1776161383658,2142790,2.7447343,-2.598636,9.079658,-0.02321288,0.07574729,-0.8491027,82
1776161383699,2143126,2.6130064,-2.3854759,9.297608,-0.034208454,0.10262536,-0.9957104,82
1776161383738,2143253,2.601031,-2.045378,9.300003,0.0,0.05009095,-1.065349,82
1776161383778,2143385,2.5722904,-1.8705388,9.515558,-0.10629055,0.05131268,-1.1215485,82
1776161383819,2143729,2.5243893,-1.4537991,9.343114,-0.043982297,0.04886922,-1.2730432,82
1776161383859,2143923,2.5195992,-1.8034773,9.462867,-0.08674286,-0.009773844,-1.2962561,83
1776161383898,2144281,2.6321669,-1.3053056,9.4580765,-0.3213151,0.087964594,-1.3952162,83
1776161383938,2144697,2.9267588,-1.2861452,9.050918,-0.24923302,0.089186326,-1.4453071,83
1776161383977,2145050,2.8022158,-1.3340462,9.213781,-0.30787608,0.21135938,-1.4831808,83
1776161384018,2145486,2.6896482,-1.1137011,8.696449,-0.35308012,0.31642818,-1.6200147,83
1776161384058,2145864,2.7591047,-1.0538247,9.103608,-0.31031954,0.27000242,-1.5552629,83
1776161384099,2146231,2.6704876,-0.67540586,9.106004,-0.51923543,0.50701815,-1.5503759,83
1776161384140,2146508,2.692043,-0.9244917,8.835362,-0.26267207,0.4373795,-1.4746287,83
1776161384177,2146184,2.3806858,-0.6778009,9.505978,-0.54367006,0.4813618,-1.3939945,83
1776161384216,2145205,2.337575,-0.3448881,9.232942,-0.6072,0.48258355,-1.3952162,83
1776161384257,2144280,2.3519452,-0.74725753,9.577829,-0.2406809,0.29810223,-1.2730432,83
1776161384296,2143602,2.088489,-0.81192404,10.004149,-0.5326745,0.32375857,-1.1227703,83
1776161384336,2143106,2.1938715,0.040715955,9.671237,-0.3371976,0.31031954,-1.0421361,83
1776161384378,2142780,1.9878967,-0.3592584,9.683212,-0.24801129,0.2687807,-0.91629785,83
1776161384420,2142590,1.8513784,-0.079036854,9.743089,-0.3652974,0.22968534,-0.63529986,83
1776161384459,2142297,1.8992796,-0.18202427,9.596991,-0.2968805,0.17104226,-0.37018433,83
1776161384499,2141933,1.8178476,-0.13891326,9.905952,-0.2761111,0.017104227,0.004886922,83
1776161384536,2141778,1.8082675,0.3281227,10.040075,-0.22357668,-0.059864793,0.19914207,83
1776161384579,2141591,1.9950818,0.18202427,10.145458,0.42149702,-0.25778514,0.34697145,83
1776161384617,2141525,1.9759214,-1.1376517,10.308322,0.6267477,-0.36285394,0.30665436,83
1776161384659,2141495,2.7016234,-0.90533125,10.3466425,0.47769663,-0.54611355,0.13805555,83
1776161384696,2141306,3.4249303,-0.6059492,11.141802,0.6267477,-0.5888741,0.047647487,83
1776161384736,2141174,3.9518428,-0.9987384,10.794518,0.84299403,-0.7012733,-0.073303826,83
1776161384777,2141242,3.6309052,-0.4598508,10.626864,0.8552113,-0.82711154,-0.21013765,83
1776161384816,2141037,3.8512504,-0.4742211,10.27,0.9370673,-0.88086766,-0.21746802,83
1776161384857,2141215,3.7578433,0.16286382,9.604176,0.8038987,-0.87109387,-0.23457226,84
1776161384899,2140871,3.7147322,0.071851686,9.335929,0.9737192,-0.8698721,-0.11362094,84
1776161384938,2139725,3.6692262,0.5508629,9.125164,0.675617,-0.88453287,0.09162979,84
1776161384977,2138585,3.8225098,1.6525887,8.912004,0.7696902,-0.93218035,0.08552113,84
1776161385017,2137600,3.5566585,0.7304921,8.861708,0.9822713,-0.9810496,0.18448131,84
1776161385056,2136864,4.2152987,1.8034773,8.488079,0.5143485,-0.8979719,0.31398472,84
1776161385098,2136233,4.5889277,2.213032,8.227018,0.47647488,-0.9334021,0.27855456,84
1776161385138,2135999,4.8883095,1.6358234,7.831834,0.36896262,-0.8576548,0.5045747,84
1776161385177,2135573,5.2715187,2.4429574,7.360008,0.15271631,-0.83077675,0.5681047,84
1776161385218,2134924,5.154161,2.0477731,6.9959593,0.06719518,-0.6988298,0.44348818,84
1776161385256,2134619,5.197272,1.0969357,6.4546766,0.18936823,-0.5021312,0.32253686,84
1776161385298,2134370,5.628382,1.3029106,6.057097,0.12705997,-0.31764993,0.27366763,84
1776161385336,2134181,5.8630977,1.5615766,5.6499376,-0.056199603,0.017104227,0.20647246,84
1776161385377,2134259,5.9972205,1.3005155,5.156556,-0.019547688,0.3323107,0.061086524,84
1776161385417,2134125,5.6882586,1.0107137,5.369716,-0.1282817,0.6597345,-0.052534413,84
1776161385457,2134049,5.7864556,1.3077006,5.590061,-0.30298916,0.90285885,-0.12461651,84
1776161385497,2134009,5.580481,1.1041209,6.0187764,-0.20769419,1.1484267,-0.21868975,84
1776161385537,2134281,5.5565305,1.3771573,6.6247253,-0.23945917,1.2754866,-0.22724187,84
1776161385576,2134449,5.156556,1.4178733,7.46539,-0.3286455,1.3695599,-0.26145032,84
1776161385617,2134009,4.914655,1.3987129,7.9515867,-0.27977628,1.4001031,-0.2687807,84
1776161385657,2132825,4.3829527,1.408293,8.543165,-0.3371976,1.3634512,-0.30909783,84
1776161385698,2131994,4.042855,1.1160961,8.852128,-0.453262,1.4404203,-0.3885103,84
1776161385738,2131420,3.4105601,0.87898564,9.295213,-0.3005457,1.2938126,-0.63407815,84
1776161385776,2131147,3.2189555,0.69696134,9.77183,-0.39584067,1.3426818,-0.7464773,84
1776161385816,2131172,2.8094008,0.72330695,10.265211,-0.26389378,1.0458013,-0.8881981,84
1776161385857,2131317,2.34476,0.73767734,10.605309,-0.25167647,0.9419542,-0.9798279,84
1776161385897,2131279,2.0621433,1.0681951,10.447235,-0.23823744,0.7367035,-1.0250319,84
1776161385938,2131227,1.6501937,1.2430341,10.646025,-0.25167647,0.6414085,-0.9492846,84
1776161385977,2131292,1.3939227,1.5711569,10.298741,-0.13194689,0.3885103,-0.82344633,84
1776161386018,2131561,1.0155039,1.6573789,10.519087,-0.039095376,0.21746802,-0.62796944,84
1776161386058,2131786,0.79036856,1.8657488,10.083186,-0.22113322,0.096516706,-0.50823987,84
1776161386096,2132042,0.7544427,1.6813295,10.210125,-0.15393804,0.06352998,-0.39461896,84
1776161386142,2132290,1.0035286,1.3939227,9.975409,-0.15882497,0.04642576,-0.39461896,84
1776161386179,2132606,1.025084,1.0825654,10.107137,-0.09162979,0.028099801,-0.44959682,84
1776161386219,2132797,1.1424417,0.5628382,9.915533,-0.009773844,0.015882496,-0.5705481,84
1776161386258,2132943,0.8215043,0.15807371,9.910743,0.095294975,-0.014660766,-0.74036866,84
1776161386296,2133059,0.76162785,0.4598508,9.807755,0.018325957,-0.05009095,-0.8491027,84
1776161386336,2132222,0.35446832,0.49577662,9.656866,0.05009095,-0.043982297,-0.92485,84
1776161386381,2130799,-0.0023950562,0.6897762,9.690397,0.04886922,-0.04520403,-0.7819075,84
1776161386416,2129580,-0.23232046,1.2717749,9.486817,0.02321288,-0.019547688,-0.66828656,84
1776161386456,2128534,-0.66103554,1.7220454,9.422151,-0.0061086523,0.014660766,-0.40683624,84
1776161386499,2127791,-0.9101213,2.1986616,9.412571,0.13683382,0.04520403,-0.07941248,84
1776161386538,2127331,-1.0418495,2.2345874,9.386225,0.103847094,0.07819075,0.23701571,84
1776161386576,2126843,-1.020294,2.2968588,9.640101,-0.042760566,0.1160644,0.49113566,84
1776161386617,2126122,-0.8574301,2.0357978,9.841286,-0.18325958,0.09162979,0.71837753,84
1776161386656,2125469,-0.7448625,1.532836,9.82931,-0.16737708,0.018325957,0.8417723,84
1776161386697,2124883,-0.56523323,1.2071083,9.774224,-0.22235495,-0.087964594,0.9969321,84
1776161386737,2124492,-0.40236944,1.0634049,9.656866,-0.22968534,-0.13927728,1.1117748,84
1776161386777,2124244,-0.19878966,0.78797346,9.386225,-0.2687807,-0.15760323,1.2156218,84
1776161386817,2124122,0.026345618,0.61073935,9.3503,-0.40439278,-0.0842994,1.210735,84
1776161386857,2123977,0.26585123,0.11735775,9.335929,-0.3213151,0.036651913,1.1325442,85
1776161386896,2123875,0.16525888,-0.6298998,9.244917,-0.22235495,0.19547687,0.93828905,85
1776161386938,2123828,0.12933303,-0.9484422,9.37904,-0.17104226,0.31642818,0.81000733,85
1776161386977,2123757,0.31614742,-0.38560405,9.858051,-0.46792278,0.3286455,0.7831292,85
1776161387016,2123903,0.33770293,-0.49577662,9.798175,-0.35308012,0.34697145,0.7672467,85
1776161387056,2123710,0.26345617,-0.63948,9.838891,-0.32620203,0.40317106,0.7012733,85
1776161387097,2122219,0.9723928,-0.3712337,9.860446,-0.4605924,0.5375614,0.7012733,85
1776161387137,2120587,0.5293074,-0.79036856,9.3526945,-0.33841935,0.6365216,0.5314528,85
1776161387177,2119370,1.1711825,-0.24669078,9.975409,-0.21868975,0.6243043,0.5558874,85
1776161387217,2118346,0.7304921,-0.7951586,10.375383,-0.032986723,0.41538838,0.56077427,85
1776161387257,2117227,-0.055086292,-0.6897762,10.578963,-0.2883284,0.27000242,0.51068336,85
1776161387298,2116799,0.11256764,-0.36165348,9.917928,-0.4728097,0.35430184,0.52534413,85
1776161387338,2116942,-0.41673976,-0.6921712,9.266473,-0.37018433,0.40683624,0.44104472,85
1776161387378,2116980,-1.3196759,-1.537626,9.482027,-0.38240165,0.29810223,0.38728857,85
1776161387416,2117056,-0.8861708,-1.0178989,9.599385,-0.93951076,0.17715092,0.4166101,85
1776161387457,2117202,-1.0442445,-1.5304409,9.503583,-0.19181168,0.073303826,0.24190263,85
1776161387497,2117431,-1.8298229,-2.7950306,9.984989,0.15393804,-0.057421334,0.23457226,85
1776161387538,2117298,-1.7004899,-1.6094778,10.169409,-0.16126843,-0.06719518,0.20891592,85
1776161387576,2117399,-1.7220454,-1.3412315,9.647286,-0.10629055,-0.009773844,0.24190263,85
1776161387624,2117579,-1.8130575,-1.3172809,9.503583,-0.061086524,-0.10995574,0.16615535,85
1776161387659,2117507,-2.129205,-2.0190325,9.80057,0.057421334,-0.17348573,0.18325958,85
1776161387697,2117476,-1.5998975,-1.6406134,9.460472,-0.028099801,-0.07819075,0.1600467,85
1776161387742,2117473,-1.6310333,-1.5184656,9.36946,-0.1282817,-0.02076942,0.1160644,85
1776161387779,2116909,-1.8010823,-1.7651564,9.517953,-0.17348573,-0.05375614,0.105068825,85
1776161387819,2115265,-1.6980948,-1.8633537,9.453287,-0.13805555,-0.035430185,0.0842994,85
1776161387856,2113568,-1.5927124,-1.748391,9.494002,-0.17470746,-0.05009095,0.06352998,85
1776161387898,2112275,-1.5136755,-1.8801191,9.508373,-0.13561209,-0.036651913,0.057421334,85
1776161387936,2111193,-1.3220711,-2.054958,9.79099,-0.12095132,-0.039095376,0.02687807,85
1776161387976,2110355,-1.6094778,-1.6765393,9.436522,-0.095294975,-0.010995574,0.004886922,85
1776161388019,2109800,-1.6382184,-1.8801191,9.453287,-0.040317107,-0.002443461,-0.010995574,85
1776161388057,2109113,-1.5040953,-1.8202426,9.407781,-0.07086037,-0.019547688,0.002443461,85
1776161388098,2108516,-1.4969101,-1.9591559,9.462867,-0.09285152,-0.028099801,0.004886922,85
1776161388139,2108101,-1.4681695,-2.1220198,9.424546,-0.018325957,-0.018325957,0.0,85
1776161388177,2107788,-1.5232557,-1.999872,9.40299,-0.010995574,-0.017104227,0.002443461,85
1776161388216,2107613,-1.5663668,-1.877724,9.429337,-0.05131268,-0.010995574,-0.0012217305,85
1776161388256,2107738,-1.4609842,-2.0621433,9.455682,-0.010995574,-0.008552114,-0.0012217305,85
1776161388297,2107745,-1.3460215,-2.0286126,9.412571,-0.021991149,-0.009773844,0.007330383,85
1776161388337,2107870,-1.4226633,-2.0429828,9.462867,-0.021991149,-0.004886922,0.0,85
1776161388379,2108002,-1.4681695,-2.1220198,9.431731,0.004886922,-0.0012217305,-0.004886922,85
1776161388419,2108221,-1.4825398,-2.0238225,9.438916,-0.0036651916,-0.0012217305,-0.0012217305,85
1776161388457,2108501,-1.4442189,-2.0980692,9.407781,-0.018325957,-0.0036651916,0.002443461,85
1776161388497,2108815,-1.4442189,-2.0717237,9.434126,0.008552114,0.0036651916,-0.004886922,85
1776161388542,2108300,-1.4346386,-2.002267,9.367064,-0.014660766,0.0012217305,-0.0012217305,85
1776161388577,2107131,-1.4945151,-2.054958,9.405386,-0.004886922,-0.0012217305,0.0036651916,85
1776161388621,2106130,-1.4346386,-2.1651309,9.3982,0.0012217305,-0.002443461,0.0,85
1776161388656,2105439,-1.4705645,-2.054958,9.482027,-0.002443461,0.002443461,0.004886922,85
1776161388696,2104945,-1.4681695,-2.1148345,9.417361,0.0012217305,0.002443461,0.0012217305,85
1776161388740,2104711,-1.4585892,-2.0525632,9.374249,-0.0061086523,0.0,0.0012217305,85
1776161388777,2104595,-1.4537991,-2.129205,9.436522,0.0,-0.0012217305,0.0,85
1776161388817,2104460,-1.4873298,-2.0357978,9.426941,-0.0012217305,-0.0012217305,0.0,85
1776161388857,2104216,-1.4681695,-2.1124396,9.455682,-0.0061086523,-0.0012217305,0.0012217305,85
1776161388899,2104199,-1.49212,-2.1028593,9.422151,-0.0061086523,-0.0036651916,-0.0012217305,85
1776161388939,2104319,-1.3915277,-2.0980692,9.405386,-0.004886922,-0.0036651916,-0.0012217305,85
1776161388976,2104585,-1.4130832,-2.1004643,9.429337,-0.007330383,-0.002443461,0.0,85
1776161389018,2104868,-1.4633794,-2.086094,9.38383,-0.002443461,0.0,0.0036651916,85
1776161389057,2105226,-1.4466139,-2.133995,9.4437065,-0.0036651916,0.002443461,0.0012217305,85
1776161389098,2105615,-1.4226633,-2.0381927,9.38383,0.0012217305,-0.0061086523,-0.004886922,85
1776161389139,2106058,-1.403503,-2.1268098,9.412571,-0.0012217305,0.002443461,0.002443461,85
1776161389177,2106495,-1.5519965,-2.1004643,9.460472,0.008552114,0.002443461,0.0,85
1776161389217,2106999,-1.4202683,-2.0286126,9.414966,0.0,0.0,0.004886922,85
1776161389258,2106469,-1.4945151,-2.1196246,9.391015,-0.002443461,0.0,0.0036651916,85
1776161389297,2105485,-1.4466139,-2.0645385,9.414966,0.004886922,-0.0012217305,0.0036651916,85
1776161389337,2104741,-1.4298486,-2.1004643,9.391015,-0.007330383,-0.0012217305,-0.002443461,85
1776161389379,2104227,-1.5400212,-2.1196246,9.434126,0.0012217305,0.002443461,0.0012217305,85
1776161389417,2103929,-1.3939227,-2.086094,9.3982,-0.0012217305,0.0012217305,-0.002443461,85
1776161389459,2103844,-1.410688,-2.0334027,9.400596,-0.0036651916,-0.004886922,-0.0036651916,85
1776161389497,2103905,-1.4873298,-2.0980692,9.38862,-0.008552114,-0.0036651916,-0.002443461,85
1776161389537,2103859,-1.410688,-2.0741186,9.38862,0.0012217305,-0.0012217305,-0.002443461,85
1776161389576,2103807,-1.403503,-2.1028593,9.38383,-0.0061086523,-0.0012217305,-0.0012217305,85
1776161389618,2103937,-1.5208607,-2.0477731,9.410175,-0.002443461,-0.002443461,-0.0012217305,85
1776161389659,2104176,-1.3867376,-2.1028593,9.407781,-0.0012217305,-0.0012217305,0.0,85
1776161389698,2104552,-1.4130832,-2.050168,9.38383,-0.002443461,0.002443461,0.0,85
1776161389738,2105009,-1.4633794,-2.1459703,9.362274,0.002443461,0.0012217305,0.0036651916,85
1776161389776,2105484,-1.405898,-2.1100445,9.386225,-0.004886922,0.0,-0.0012217305,85
1776161389816,2105982,-1.4681695,-2.0645385,9.405386,0.007330383,-0.0012217305,-0.0036651916,85
1776161389856,2106520,-1.405898,-2.1148345,9.391015,-0.004886922,0.0012217305,-0.0012217305,84
1776161389899,2107172,-1.4681695,-2.0980692,9.3526945,0.002443461,-0.002443461,-0.0036651916,84
1776161389938,2107599,-1.4537991,-2.1076493,9.38862,0.0,-0.002443461,0.0012217305,84
1776161389979,2107198,-1.4370337,-2.1411803,9.3982,-0.0012217305,0.0,0.0012217305,84
1776161390018,2106403,-1.489725,-2.054958,9.470052,-0.0036651916,-0.0036651916,0.0,84
1776161390056,2105779,-1.4514041,-2.1148345,9.422151,0.0,0.0,0.0,84
1776161390096,2105433,-1.4418238,-2.1555505,9.438916,0.0012217305,0.002443461,0.002443461,84
1776161390138,2105220,-1.4442189,-2.0310078,9.434126,-0.002443461,0.0012217305,0.0,84
1776161390177,2105316,-1.5064903,-2.1004643,9.431731,0.0,-0.002443461,-0.002443461,84
1776161390216,2105392,-1.4729595,-2.1076493,9.400596,-0.004886922,-0.0012217305,0.0,84
1776161390257,2105446,-1.3987129,-2.129205,9.400596,0.002443461,0.0,0.0,84
1776161390297,2105504,-1.4466139,-2.1124396,9.441312,-0.0036651916,-0.0012217305,0.0,84
1776161390338,2105733,-1.4466139,-2.0573533,9.395805,0.0,-0.0012217305,-0.0012217305,84
1776161390376,2106054,-1.4993051,-2.1148345,9.426941,-0.0012217305,-0.0012217305,-0.0012217305,84
1776161390418,2106451,-1.4442189,-2.1100445,9.429337,-0.004886922,-0.0012217305,0.0,84
1776161390457,2106942,-1.4154782,-2.1363902,9.391015,0.0036651916,0.002443461,0.0036651916,84
1776161390497,2107479,-1.4394288,-2.0717237,9.422151,-0.0036651916,0.0,0.0012217305,84
1776161390538,2108069,-1.3675771,-2.1052544,9.371855,-0.002443461,-0.0061086523,-0.0036651916,84
1776161390578,2108619,-1.4442189,-2.1435752,9.374249,0.0012217305,0.002443461,0.0012217305,84
1776161390616,2109202,-1.4130832,-2.086094,9.393411,-0.0012217305,-0.002443461,-0.0036651916,84
1776161390658,2109905,-1.4585892,-2.129205,9.3526945,0.0,-0.0012217305,0.002443461,84
1776161390698,2110076,-1.4442189,-2.133995,9.417361,-0.0012217305,0.002443461,0.002443461,84
1776161390736,2109420,-1.5208607,-2.1675258,9.422151,0.0012217305,0.0,0.0036651916,84
1776161390776,2108818,-1.3891326,-2.088489,9.362274,-0.009773844,-0.0012217305,-0.0012217305,84
1776161390817,2108472,-1.3220711,-2.090884,9.422151,0.0036651916,0.0036651916,0.004886922,84
1776161390861,2108309,-1.4609842,-2.1076493,9.426941,-0.004886922,0.0012217305,0.0012217305,84
1776161390896,2108370,-1.4873298,-2.0980692,9.3982,-0.002443461,-0.0012217305,-0.0012217305,84
1776161390939,2108541,-1.4442189,-2.1411803,9.412571,-0.008552114,-0.002443461,0.0,84
1776161390976,2108659,-1.410688,-2.1459703,9.453287,-0.002443461,-0.0012217305,0.0,84
1776161391017,2108796,-1.4705645,-2.1052544,9.40299,-0.009773844,0.0,-0.0036651916,84
1776161391058,2108931,-1.4729595,-2.1579456,9.386225,-0.0061086523,-0.0012217305,0.0,84
1776161391097,2109280,-1.4154782,-2.050168,9.410175,-0.002443461,-0.0012217305,0.0012217305,84
1776161391136,2109717,-1.4873298,-2.1363902,9.374249,-0.0061086523,-0.002443461,0.0012217305,84
1776161391176,2110198,-1.4705645,-2.1004643,9.417361,-0.002443461,0.0012217305,0.002443461,84
1776161391217,2110679,-1.5040953,-2.0789087,9.37904,-0.0061086523,0.0012217305,0.002443461,84
1776161391256,2111253,-1.4681695,-2.1555505,9.38862,-0.0061086523,-0.002443461,-0.0012217305,84
1776161391297,2111751,-1.4753547,-2.1100445,9.431731,0.0061086523,0.0012217305,0.0012217305,84
1776161391338,2112372,-1.4418238,-2.1459703,9.3982,-0.0061086523,-0.002443461,0.0012217305,84
1776161391377,2112996,-1.4945151,-2.1076493,9.410175,0.002443461,0.0,0.0036651916,84
1776161391416,2113432,-1.489725,-2.0932791,9.38383,-0.004886922,0.002443461,0.004886922,84
1776161391456,2112924,-1.3675771,-2.090884,9.417361,-0.0012217305,0.0012217305,0.004886922,84
1776161391496,2112340,-1.489725,-2.1555505,9.441312,-0.009773844,0.0,0.0,84
1776161391538,2112033,-1.4945151,-2.1268098,9.422151,0.0036651916,0.002443461,0.0012217305,84
1776161391581,2111959,-1.4298486,-2.172316,9.328744,-0.0036651916,0.0,-0.0012217305,84
1776161391616,2111931,-1.4969101,-2.1363902,9.424546,0.0,-0.002443461,-0.002443461,84
1776161391656,2112225,-1.4729595,-2.0813038,9.407781,-0.0061086523,-0.0036651916,-0.0036651916,84
1776161391698,2112300,-1.4226633,-2.1363902,9.393411,0.002443461,-0.002443461,-0.002443461,84
1776161391739,2112304,-1.4777497,-2.2010567,9.407781,-0.0012217305,-0.0036651916,-0.002443461,84
1776161391776,2112458,-1.4154782,-2.1316,9.426941,0.0,-0.0036651916,-0.0061086523,84
1776161391817,2112671,-1.3819474,-2.1579456,9.4437065,0.0012217305,-0.002443461,-0.002443461,84
1776161391858,2112970,-1.449009,-2.1124396,9.38862,0.0,-0.0012217305,-0.0012217305,84
1776161391897,2113415,-1.4585892,-2.1555505,9.367064,0.002443461,0.0,0.0,84
1776161391938,2113846,-1.4657744,-2.1004643,9.417361,0.0012217305,-0.002443461,-0.002443461,84
1776161391976,2114256,-1.449009,-2.088489,9.38862,0.008552114,0.0,-0.0012217305,84
1776161392016,2114741,-1.3867376,-2.1771061,9.400596,0.0012217305,0.0,0.0,84
1776161392058,2115260,-1.4202683,-2.1411803,9.381435,0.002443461,-0.002443461,-0.0012217305,84
1776161392099,2115673,-1.449009,-2.1196246,9.417361,0.004886922,0.0,0.0012217305,84
1776161392139,2115542,-1.4418238,-2.1124396,9.395805,0.002443461,0.002443461,0.0012217305,84
1776161392179,2114858,-1.4298486,-2.1363902,9.410175,-0.002443461,-0.002443461,0.0,84
1776161392216,2114329,-1.5088854,-2.1028593,9.441312,0.0036651916,0.0012217305,-0.0012217305,84
1776161392256,2113995,-1.4609842,-2.1866863,9.434126,0.0,0.002443461,0.0012217305,84
1776161392297,2113818,-1.4705645,-2.086094,9.429337,0.0,-0.0012217305,-0.002443461,84
1776161392338,2113918,-1.4633794,-2.1316,9.436522,-0.002443461,-0.0012217305,-0.002443461,84
1776161392378,2114009,-1.3987129,-2.088489,9.422151,-0.0036651916,-0.002443461,-0.002443461,84
1776161392419,2114001,-1.365182,-2.1986616,9.410175,-0.002443461,0.0,-0.002443461,84
1776161392457,2114042,-1.4729595,-2.1100445,9.419756,-0.002443461,-0.0036651916,-0.004886922,84
1776161392496,2114203,-1.403503,-2.1483655,9.316769,-0.0036651916,-0.002443461,-0.004886922,84
1776161392537,2114408,-1.3771573,-2.1316,9.434126,-0.0012217305,0.0012217305,-0.0012217305,84
1776161392578,2114674,-1.4226633,-2.1914763,9.419756,0.002443461,0.0,0.0012217305,84
1776161392618,2115039,-1.408293,-2.1866863,9.405386,-0.008552114,0.0012217305,0.0,84
1776161392657,2115511,-1.4705645,-2.1220198,9.38862,0.002443461,-0.0036651916,-0.004886922,84
1776161392697,2115880,-1.4418238,-2.1052544,9.4580765,-0.0012217305,0.0012217305,0.0,84
1776161392737,2116302,-1.4370337,-2.1004643,9.462867,0.0036651916,0.0,-0.0012217305,84
1776161392776,2116786,-1.4466139,-2.1483655,9.400596,0.0,-0.0012217305,0.002443461,84
1776161392816,2117100,-1.3771573,-2.1507604,9.410175,0.0012217305,0.002443461,0.002443461,84
1776161392858,2116489,-1.4154782,-2.0980692,9.3982,0.0036651916,0.0,0.002443461,83
1776161392898,2115552,-1.4825398,-2.1316,9.391015,-0.0061086523,0.0012217305,-0.0012217305,83
1776161392937,2114970,-1.4561942,-2.1268098,9.410175,0.004886922,0.0036651916,0.002443461,83
1776161392978,2114573,-1.5040953,-2.1507604,9.374249,-0.002443461,0.0012217305,-0.0012217305,83
1776161393017,2114312,-1.4705645,-2.0765138,9.36946,0.0,-0.0012217305,-0.0012217305,83
1776161393056,2114232,-1.4418238,-2.1076493,9.391015,-0.004886922,0.0,-0.0012217305,83
1776161393096,2114176,-1.4322436,-2.1459703,9.3982,0.002443461,0.0012217305,0.0,83
1776161393138,2114176,-1.4322436,-2.1459703,9.3982,-0.004886922,0.0,-0.002443461,83
1776161393177,2113978,-1.4226633,-2.1579456,9.367064,0.0,0.0,-0.0036651916,83
1776161393218,2114015,-1.4011079,-2.1411803,9.40299,-0.0036651916,-0.0012217305,-0.002443461,83
1776161393257,2114225,-1.3795524,-2.1004643,9.357485,0.0,-0.0012217305,-0.0012217305,83
1776161393298,2114406,-1.403503,-2.1531556,9.395805,-0.002443461,0.0012217305,0.0,83
1776161393337,2115121,-1.4418238,-2.1220198,9.391015,0.0,0.0012217305,0.0,83
1776161393381,2115499,-1.3771573,-2.054958,9.4580765,-0.002443461,-0.0012217305,-0.004886922,83
1776161393416,2115836,-1.3891326,-2.169921,9.395805,0.0061086523,0.0012217305,0.0,83
1776161393459,2116333,-1.4298486,-2.1220198,9.417361,-0.0012217305,0.0,0.0,83
1776161393499,2116840,-1.3699721,-2.1411803,9.362274,0.0036651916,0.0,0.002443461,83
1776161393540,2116589,-1.3795524,-2.2010567,9.410175,0.0012217305,0.0036651916,0.002443461,83
1776161393578,2115667,-1.5136755,-2.179501,9.448497,0.004886922,0.0012217305,0.002443461,83
1776161393618,2114877,-1.4130832,-2.0813038,9.400596,-0.007330383,-0.0012217305,0.0012217305,83
1776161393658,2114408,-1.3987129,-2.1842914,9.38383,0.007330383,0.0036651916,0.0012217305,83
1776161393698,2113952,-1.4825398,-2.1771061,9.4437065,-0.0012217305,0.004886922,0.0012217305,83
1776161393737,2113793,-1.3603919,-2.0932791,9.38383,0.002443461,0.0,0.0,83
1776161393778,2113697,-1.4178733,-2.1004643,9.376645,-0.0061086523,0.0,-0.0012217305,83
1776161393818,2113628,-1.362787,-2.1459703,9.38862,0.0036651916,0.0012217305,0.0,83
1776161393858,2113567,-1.4011079,-2.1316,9.407781,-0.002443461,0.0012217305,0.0,83
1776161393899,2113567,-1.4011079,-2.1316,9.407781,0.002443461,0.0012217305,-0.0012217305,83
1776161393939,2113566,-1.4370337,-2.1268098,9.429337,-0.002443461,0.0,0.0012217305,83
1776161393977,2113944,-1.4226633,-2.1531556,9.407781,-0.002443461,0.0,0.0,83
1776161394018,2114213,-1.4537991,-2.1507604,9.371855,-0.0012217305,0.0012217305,0.0012217305,83
1776161394056,2114509,-1.410688,-2.1914763,9.424546,-0.0012217305,0.0012217305,0.002443461,83
1776161394097,2114897,-1.408293,-2.1459703,9.36946,0.0012217305,0.002443461,0.002443461,83
1776161394136,2114897,-1.408293,-2.1459703,9.36946,-0.004886922,0.002443461,0.0012217305,83
1776161394176,2115713,-1.4609842,-2.0717237,9.405386,-0.0012217305,-0.002443461,-0.002443461,83
1776161394216,2116209,-1.3508117,-2.133995,9.38383,0.0036651916,0.002443461,0.002443461,83
1776161394258,2116685,-1.4130832,-2.169921,9.40299,0.0,0.0,0.0012217305,83
1776161394299,2116982,-1.3603919,-2.133995,9.405386,0.0012217305,0.002443461,0.004886922,83
1776161394337,2116255,-1.4298486,-2.129205,9.37904,0.0,0.0036651916,0.004886922,83
1776161394376,2115464,-1.410688,-2.1531556,9.36946,0.0,0.002443461,0.0061086523,83
1776161394419,2114948,-1.410688,-2.054958,9.422151,0.0012217305,0.004886922,0.002443461,83
1776161394460,2114594,-1.3987129,-2.174711,9.419756,0.004886922,0.004886922,0.004886922,83
1776161394499,2114594,-1.3987129,-2.174711,9.419756,-0.0061086523,0.0,0.0,83
1776161394536,2114435,-1.4202683,-2.1579456,9.391015,0.0012217305,0.0,0.0012217305,83
1776161394577,2114365,-1.449009,-2.083699,9.40299,-0.004886922,0.0,0.0012217305,83
1776161394619,2114365,-1.449009,-2.083699,9.40299,0.0012217305,0.0,-0.0012217305,83
1776161394657,2114159,-1.4657744,-2.2010567,9.3982,-0.0012217305,0.0,-0.002443461,83
1776161394700,2114398,-1.5017003,-2.1004643,9.400596,-0.0012217305,-0.0012217305,-0.002443461,83
1776161394740,2114398,-1.5017003,-2.1004643,9.400596,-0.0012217305,-0.0012217305,-0.002443461,83
1776161394776,2114628,-1.4777497,-2.1124396,9.410175,0.0012217305,-0.002443461,-0.0012217305,83
1776161394817,2115153,-1.4226633,-2.1531556,9.376645,0.0,-0.002443461,-0.0012217305,83
1776161394857,2115546,-1.3579968,-2.1938715,9.36946,0.002443461,0.0,0.0012217305,83
1776161394897,2115841,-1.4681695,-2.169921,9.412571,0.0036651916,0.0036651916,0.0,83
1776161394937,2116302,-1.449009,-2.1435752,9.371855,0.0036651916,-0.002443461,-0.0012217305,83
1776161394977,2116302,-1.449009,-2.1435752,9.371855,0.0061086523,0.002443461,0.002443461,83
1776161395018,2116687,-1.3843424,-2.133995,9.441312,0.0036651916,-0.002443461,-0.0012217305,83
1776161395056,2117281,-1.4011079,-2.1579456,9.460472,0.007330383,0.0012217305,0.0036651916,83
1776161395097,2117281,-1.4011079,-2.1579456,9.460472,0.004886922,0.002443461,0.002443461,83
1776161395138,2115708,-1.3699721,-2.174711,9.381435,0.0036651916,0.0,0.0036651916,83
1776161395177,2115284,-1.4130832,-2.0956743,9.37904,0.0012217305,0.0,-0.0012217305,83
1776161395216,2115284,-1.4130832,-2.0956743,9.37904,0.0061086523,0.0036651916,0.004886922,83
1776161395256,2115023,-1.408293,-2.215427,9.393411,0.0,0.002443461,0.0012217305,83
1776161395297,2114848,-1.3508117,-2.1363902,9.374249,0.004886922,-0.0012217305,-0.0012217305,83
1776161395337,2114821,-1.3891326,-2.088489,9.448497,-0.007330383,-0.002443461,-0.0036651916,83
1776161395378,2114687,-1.4394288,-2.1483655,9.405386,0.004886922,0.0,-0.002443461,83
1776161395422,2114733,-1.4011079,-2.1531556,9.436522,-0.002443461,-0.0012217305,-0.002443461,83
1776161395457,2114910,-1.3915277,-2.1363902,9.429337,0.0012217305,0.0,-0.0012217305,83
1776161395498,2114910,-1.3915277,-2.1363902,9.429337,0.0,0.0,-0.0012217305,83
1776161395537,2115092,-1.3987129,-2.1076493,9.37904,0.0012217305,0.0012217305,0.0012217305,83
1776161395579,2115442,-1.3675771,-2.1196246,9.407781,0.0012217305,0.0,0.002443461,83
1776161395617,2115723,-1.4274535,-2.169921,9.3526945,0.0,0.002443461,0.0012217305,83
1776161395657,2116026,-1.410688,-2.1172297,9.3982,0.0012217305,-0.0036651916,-0.002443461,83
1776161395698,2116500,-1.4322436,-2.1028593,9.410175,0.004886922,0.002443461,0.0012217305,83
1776161395737,2116853,-1.403503,-2.2226121,9.395805,0.002443461,-0.0012217305,-0.0012217305,83
1776161395779,2117691,-1.405898,-2.1627357,9.422151,0.002443461,0.0,0.0012217305,83
1776161395818,2117691,-1.405898,-2.1627357,9.422151,0.002443461,0.0012217305,0.004886922,83
1776161395857,2116244,-1.4729595,-2.174711,9.395805,0.004886922,0.0,0.0036651916,83
1776161395896,2116244,-1.4729595,-2.174711,9.395805,-0.0036651916,-0.0012217305,0.0,83
1776161395936,2115449,-1.4011079,-2.1076493,9.417361,0.0061086523,0.002443461,0.0012217305,83
1776161395977,2114904,-1.4298486,-2.124415,9.412571,0.0,0.002443461,0.0,83
1776161396019,2114488,-1.3795524,-2.1316,9.340719,-0.0012217305,-0.0012217305,-0.0012217305,83
1776161396080,2114010,-1.4226633,-2.124415,9.424546,-0.0036651916,-0.0012217305,-0.0012217305,83
1776161396099,2114010,-1.4250585,-2.1555505,9.40299,0.0012217305,0.0,-0.0012217305,83
1776161396139,2114010,-1.4250585,-2.1555505,9.40299,-0.0012217305,0.0012217305,-0.0012217305,83
1776161396179,2113742,-1.3915277,-2.1435752,9.393411,-0.002443461,0.0012217305,0.0,83
1776161396216,2113745,-1.3939227,-2.1004643,9.386225,-0.0012217305,0.0012217305,0.0,83
1776161396256,2113918,-1.3532068,-2.1890814,9.410175,0.0036651916,0.0,0.0,83
1776161396303,2114045,-1.4250585,-2.1196246,9.34551,0.0012217305,0.0012217305,0.0012217305,83
1776161396336,2114272,-1.362787,-2.0956743,9.335929,0.0061086523,0.002443461,0.0036651916,83
1776161396376,2114536,-1.4585892,-2.1579456,9.422151,-0.0036651916,0.002443461,0.002443461,83
1776161396416,2114803,-1.4394288,-2.1411803,9.302399,0.0012217305,-0.0036651916,-0.0012217305,83
1776161396457,2115517,-1.4130832,-2.1651309,9.36946,0.0036651916,0.0036651916,0.0012217305,83
1776161396498,2115517,-1.4130832,-2.1651309,9.36946,0.0036651916,0.0012217305,-0.0012217305,83
1776161396538,2116260,-1.4011079,-2.1411803,9.3503,0.0036651916,0.002443461,0.004886922,83
1776161396577,2116260,-1.4011079,-2.1411803,9.3503,0.004886922,0.0036651916,0.004886922,83
1776161396618,2115589,-1.3963177,-2.172316,9.410175,0.002443461,0.002443461,0.007330383,83
1776161396656,2114435,-1.4585892,-2.1627357,9.357485,-0.0012217305,0.0036651916,0.002443461,83
1776161396697,2113604,-1.4370337,-2.045378,9.393411,0.0061086523,0.0061086523,0.0061086523,83
1776161396738,2113022,-1.3556018,-2.1196246,9.414966,-0.0012217305,0.0036651916,0.0036651916,83
1776161396779,2112341,-1.3963177,-2.129205,9.426941,0.0036651916,0.0,0.002443461,83
1776161396816,2112341,-1.3963177,-2.129205,9.426941,-0.004886922,0.002443461,0.002443461,83
1776161396858,2112126,-1.408293,-2.090884,9.386225,0.0061086523,0.0036651916,0.002443461,83
1776161396896,2111800,-1.3795524,-2.2010567,9.38383,-0.0036651916,0.002443461,0.0012217305,83
1776161396939,2111601,-1.3436265,-2.1962664,9.38383,0.0012217305,0.0012217305,0.0,83
1776161396978,2111454,-1.3987129,-2.1411803,9.357485,-0.004886922,0.0,0.0012217305,83
1776161397019,2111717,-1.4011079,-2.129205,9.319163,0.0,0.0,0.0,83
1776161397057,2111717,-1.4011079,-2.129205,9.319163,-0.0036651916,0.0,0.002443461,83
1776161397096,2111856,-1.3867376,-2.1507604,9.381435,-0.002443461,0.0012217305,0.0036651916,83
1776161397138,2112109,-1.4370337,-2.1100445,9.3503,-0.0036651916,0.0036651916,0.002443461,83
1776161397176,2112366,-1.4130832,-2.1268098,9.419756,-0.002443461,-0.002443461,-0.0036651916,83
1776161397216,2112718,-1.4394288,-2.0621433,9.3982,0.0,0.002443461,0.0012217305,83
1776161397257,2113077,-1.410688,-2.2058468,9.37904,-0.0012217305,0.0,0.0012217305,83
1776161397297,2113449,-1.4298486,-2.1507604,9.362274,0.0012217305,0.0012217305,0.0036651916,83
1776161397337,2113894,-1.4322436,-2.172316,9.386225,0.0,0.004886922,0.0036651916,83
1776161397383,2113534,-1.3963177,-2.1435752,9.333534,0.0012217305,0.0012217305,0.004886922,83
1776161397418,2112458,-1.362787,-2.179501,9.410175,-0.0061086523,0.0012217305,0.002443461,83
1776161397458,2111500,-1.3915277,-2.1842914,9.36946,0.004886922,0.0036651916,0.004886922,83
1776161397498,2110888,-1.4202683,-2.1866863,9.460472,-0.0036651916,0.0036651916,0.0012217305,83
1776161397539,2110462,-1.4322436,-2.1004643,9.414966,0.0012217305,0.0,-0.0012217305,83
1776161397577,2110208,-1.4609842,-2.1148345,9.395805,-0.007330383,0.0,-0.002443461,83
1776161397616,2110019,-1.4226633,-2.1555505,9.36467,0.002443461,0.0,-0.002443461,83
1776161397658,2109807,-1.4442189,-2.1627357,9.381435,-0.0061086523,-0.002443461,-0.002443461,83
1776161397699,2109526,-1.3915277,-2.1052544,9.455682,0.0012217305,-0.0012217305,-0.0036651916,83
1776161397736,2109358,-1.449009,-2.1411803,9.38383,-0.002443461,-0.002443461,-0.0036651916,83
1776161397776,2109425,-1.4657744,-2.1004643,9.407781,-0.0012217305,-0.002443461,-0.0036651916,83
1776161397819,2109518,-1.405898,-2.1579456,9.376645,0.0036651916,0.0,0.0,83
1776161397857,2109734,-1.4346386,-2.174711,9.3598795,-0.0012217305,0.0036651916,0.0,82
1776161397896,2109975,-1.4178733,-2.1148345,9.3982,0.002443461,-0.0012217305,-0.0012217305,82
1776161397937,2110233,-1.4537991,-2.213032,9.407781,0.008552114,0.002443461,0.002443461,82
1776161397976,2110522,-1.3579968,-2.1387851,9.410175,0.0012217305,0.0,0.0012217305,82
1776161398016,2110840,-1.3699721,-2.172316,9.391015,0.0061086523,0.002443461,0.004886922,82
1776161398058,2111207,-1.3723671,-2.1555505,9.386225,0.0061086523,0.0036651916,0.0036651916,82
1776161398096,2110991,-1.3987129,-2.1675258,9.429337,0.0061086523,0.0012217305,0.004886922,82
1776161398138,2109927,-1.3867376,-2.0956743,9.410175,-0.004886922,0.0,0.0,82
1776161398178,2108838,-1.3867376,-2.1411803,9.37904,0.008552114,0.0036651916,0.002443461,82
1776161398216,2108175,-1.3867376,-2.1842914,9.414966,-0.0036651916,0.0012217305,0.0012217305,82
1776161398256,2107720,-1.3987129,-2.1411803,9.386225,0.0012217305,-0.0012217305,-0.002443461,82
1776161398296,2107537,-1.3819474,-2.1483655,9.381435,-0.0061086523,-0.0012217305,-0.0036651916,82
1776161398337,2107375,-1.3532068,-2.1531556,9.422151,0.0061086523,0.0,-0.0012217305,82
1776161398377,2107035,-1.4226633,-2.179501,9.395805,-0.004886922,-0.0012217305,-0.002443461,82
1776161398416,2106757,-1.4418238,-2.1363902,9.371855,0.0036651916,0.0012217305,-0.0036651916,82
1776161398456,2106673,-1.4011079,-2.1555505,9.417361,-0.002443461,-0.0012217305,-0.002443461,82
1776161398497,2106743,-1.3556018,-2.1363902,9.417361,0.0012217305,-0.0012217305,0.0,82
1776161398537,2106874,-1.3963177,-2.1555505,9.424546,0.002443461,0.0012217305,0.002443461,82
1776161398576,2107057,-1.3987129,-2.1579456,9.393411,-0.002443461,0.0012217305,0.0012217305,82
1776161398618,2107308,-1.4178733,-2.1387851,9.424546,0.002443461,-0.0036651916,-0.0036651916,82
1776161398656,2107523,-1.362787,-2.174711,9.407781,0.004886922,0.002443461,0.0,82
1776161398701,2107829,-1.405898,-2.1459703,9.40299,0.0,-0.0012217305,0.0012217305,82
1776161398737,2108186,-1.4202683,-2.0693285,9.36946,0.0012217305,0.0,0.002443461,82
1776161398780,2108668,-1.4178733,-2.1555505,9.395805,0.0012217305,0.002443461,0.002443461,82
1776161398817,2108481,-1.4561942,-2.129205,9.405386,0.004886922,0.002443461,0.0036651916,82
1776161398856,2107341,-1.3412315,-2.1459703,9.37904,-0.007330383,0.0,-0.0012217305,82
1776161398898,2106080,-1.403503,-2.0813038,9.465262,0.008552114,0.004886922,0.0012217305,82
1776161398939,2105219,-1.4466139,-2.1603408,9.40299,0.0,0.0036651916,0.002443461,82
1776161398978,2104482,-1.365182,-2.1890814,9.412571,0.002443461,0.0,0.0,82
1776161399017,2104012,-1.3771573,-2.169921,9.4580765,-0.0061086523,0.0,0.0,82
1776161399056,2103733,-1.3603919,-2.1028593,9.4508915,0.0061086523,0.002443461,0.0,82
1776161399098,2103507,-1.410688,-2.1962664,9.36946,-0.002443461,0.0012217305,0.0,82
1776161399140,2103131,-1.3891326,-2.1004643,9.412571,0.0,0.0,0.0,82
1776161399179,2102864,-1.3939227,-2.1579456,9.407781,-0.0012217305,0.0,-0.0012217305,82
1776161399216,2102779,-1.3891326,-2.1387851,9.412571,-0.0012217305,-0.0012217305,0.0,82
1776161399256,2103006,-1.4753547,-2.174711,9.395805,0.0012217305,0.0012217305,0.0012217305,82
1776161399297,2103195,-1.4418238,-2.1076493,9.395805,-0.002443461,0.0012217305,0.0012217305,82
1776161399336,2103436,-1.3867376,-2.124415,9.338325,0.0012217305,0.0,-0.0036651916,82
1776161399377,2103720,-1.3460215,-2.1004643,9.455682,0.0,0.0012217305,-0.0012217305,82
1776161399416,2104057,-1.3843424,-2.1363902,9.386225,0.0012217305,0.0012217305,0.0,82
1776161399457,2104466,-1.4394288,-2.174711,9.407781,0.0012217305,0.0,0.002443461,82
1776161399497,2104684,-1.3244661,-2.215427,9.424546,0.0012217305,0.002443461,0.0036651916,82
1776161399536,2103977,-1.4178733,-2.1938715,9.446101,0.004886922,0.002443461,0.0036651916,82
1776161399577,2102547,-1.4466139,-2.1172297,9.4437065,-0.0061086523,-0.0012217305,0.002443461,82
1776161399619,2101492,-1.3843424,-2.1603408,9.386225,0.0036651916,0.004886922,0.0012217305,82
1776161399658,2100826,-1.3603919,-2.1555505,9.431731,0.0012217305,0.004886922,0.004886922,82
1776161399697,2100198,-1.3843424,-2.1220198,9.395805,0.0,0.0012217305,0.0012217305,82
1776161399736,2099898,-1.3963177,-2.1986616,9.438916,-0.007330383,0.0,0.0012217305,82
1776161399777,2099619,-1.3987129,-2.1459703,9.393411,0.0,0.0036651916,0.0,82
1776161399821,2099289,-1.3771573,-2.088489,9.417361,-0.0036651916,0.002443461,0.0012217305,82
1776161399858,2099035,-1.3364414,-2.129205,9.38862,0.0,0.002443461,0.0,82
1776161399897,2098911,-1.405898,-2.1603408,9.393411,-0.0061086523,0.002443461,0.0012217305,82
1776161399936,2098890,-1.3316512,-2.133995,9.400596,-0.0012217305,0.002443461,0.002443461,82
1776161399978,2099174,-1.4801447,-2.1866863,9.367064,-0.002443461,0.0036651916,0.0036651916,82
1776161400017,2099364,-1.3508117,-2.1387851,9.36946,-0.002443461,0.0036651916,0.0061086523,82
1776161400060,2099610,-1.3867376,-2.1627357,9.37904,-0.004886922,0.002443461,0.0036651916,82
1776161400096,2099965,-1.3771573,-2.086094,9.419756,-0.002443461,-0.0012217305,-0.002443461,82
1776161400142,2100313,-1.4681695,-2.1196246,9.455682,-0.0012217305,0.0012217305,0.0012217305,82
1776161400176,2100742,-1.3843424,-2.1483655,9.338325,-0.0012217305,-0.0012217305,-0.0012217305,82
1776161400217,2101146,-1.3699721,-2.2226121,9.405386,-0.002443461,0.002443461,0.0036651916,82
1776161400261,2101315,-1.3987129,-2.1052544,9.340719,0.0,0.0036651916,0.004886922,82
1776161400298,2100320,-1.3699721,-2.1507604,9.412571,-0.0036651916,0.002443461,0.0061086523,82
1776161400338,2099156,-1.4226633,-2.1555505,9.309584,-0.010995574,-0.0012217305,0.0012217305,82
1776161400376,2098287,-1.4250585,-2.0980692,9.38383,0.0012217305,0.002443461,0.0036651916,82
1776161400418,2097673,-1.3532068,-2.1842914,9.419756,-0.0061086523,0.002443461,0.0,82
1776161400457,2097225,-1.3843424,-2.169921,9.393411,-0.002443461,0.0012217305,-0.0012217305,82
1776161400497,2097053,-1.3843424,-2.1579456,9.374249,-0.007330383,0.0012217305,-0.0012217305,82
1776161400536,2096782,-1.4609842,-2.129205,9.472447,-0.0012217305,0.0,0.0,82
1776161400578,2096447,-1.410688,-2.179501,9.343114,-0.0036651916,0.0,-0.0012217305,82
1776161400616,2096310,-1.4873298,-2.179501,9.417361,-0.0036651916,-0.0012217305,-0.0036651916,82
1776161400657,2096288,-1.4322436,-2.1483655,9.410175,-0.0012217305,0.0,-0.0012217305,82
1776161400697,2096398,-1.3723671,-2.1962664,9.426941,0.0012217305,0.0012217305,-0.0012217305,82
1776161400741,2096624,-1.4274535,-2.172316,9.371855,0.002443461,0.0,0.002443461,82
1776161400779,2096883,-1.405898,-2.1411803,9.376645,-0.002443461,0.0012217305,0.002443461,82
1776161400819,2097202,-1.4130832,-2.1507604,9.453287,0.007330383,-0.002443461,-0.0012217305,82
1776161400862,2097491,-1.4873298,-2.220217,9.3598795,0.0061086523,0.0012217305,0.0012217305,82
1776161400896,2097844,-1.4418238,-2.1387851,9.376645,0.0036651916,0.0,0.0,82
1776161400936,2098276,-1.365182,-2.2321923,9.376645,0.004886922,0.0012217305,0.002443461,82
1776161400978,2098582,-1.4346386,-2.1483655,9.426941,0.0036651916,0.0036651916,0.002443461,82
1776161401017,2097908,-1.4370337,-2.1268098,9.37904,0.0061086523,0.002443461,0.004886922,82
1776161401057,2096670,-1.4250585,-2.124415,9.393411,-0.0061086523,0.0,-0.0012217305,82
1776161401097,2095892,-1.4514041,-2.1100445,9.3982,0.010995574,0.0036651916,0.002443461,82
1776161401136,2095286,-1.4346386,-2.172316,9.405386,-0.002443461,0.004886922,0.002443461,82
1776161401179,2094878,-1.4178733,-2.133995,9.424546,0.0036651916,0.0,-0.0012217305,82
1776161401216,2094737,-1.4969101,-2.0980692,9.407781,-0.007330383,0.0,-0.002443461,82
1776161401256,2094548,-1.3244661,-2.1531556,9.38862,0.002443461,0.0,-0.0012217305,82
1776161401296,2094247,-1.4585892,-2.1842914,9.376645,-0.004886922,0.0,-0.002443461,82
1776161401337,2094111,-1.4274535,-2.124415,9.386225,0.0,0.0,-0.0012217305,82
1776161401377,2094187,-1.403503,-2.1531556,9.386225,-0.0036651916,-0.0012217305,-0.0036651916,82
1776161401419,2094416,-1.4466139,-2.1771061,9.436522,-0.0012217305,0.0,0.0,82
1776161401456,2094606,-1.4154782,-2.172316,9.357485,0.002443461,0.0012217305,0.002443461,82
1776161401498,2094897,-1.3915277,-2.174711,9.414966,-0.0036651916,0.002443461,0.0012217305,82
1776161401538,2095297,-1.410688,-2.1387851,9.395805,0.002443461,-0.002443461,-0.002443461,82
1776161401576,2095685,-1.3987129,-2.1411803,9.393411,0.002443461,0.002443461,0.0012217305,82
1776161401618,2096159,-1.3867376,-2.1172297,9.395805,0.0012217305,0.0,-0.0012217305,82
1776161401669,2097085,-1.4154782,-2.1603408,9.424546,0.0,0.0,0.0036651916,82
1776161401697,2097085,-1.4154782,-2.1603408,9.424546,0.0012217305,0.0036651916,0.002443461,82
1776161401738,2096497,-1.4442189,-2.1651309,9.343114,0.002443461,0.002443461,0.0036651916,82
1776161401777,2095345,-1.3963177,-2.1507604,9.441312,-0.0061086523,0.0,-0.0012217305,82
1776161401818,2094508,-1.3460215,-2.1220198,9.362274,0.0061086523,0.0036651916,0.0036651916,82
1776161401856,2093810,-1.3675771,-2.172316,9.405386,0.0,0.004886922,0.0061086523,82
1776161401897,2093426,-1.4178733,-2.1363902,9.3598795,0.0012217305,0.0,0.0,82
1776161401937,2093251,-1.4298486,-2.129205,9.357485,-0.004886922,0.0,-0.0012217305,82
1776161401980,2093194,-1.3891326,-2.179501,9.381435,0.0012217305,0.0012217305,-0.0012217305,82
1776161402017,2093053,-1.403503,-2.1531556,9.362274,-0.0036651916,0.0012217305,0.0,82
1776161402056,2092909,-1.4346386,-2.169921,9.410175,0.0,0.0012217305,-0.002443461,82
1776161402098,2093014,-1.3915277,-2.169921,9.400596,-0.0036651916,0.0012217305,0.0,82
1776161402138,2093164,-1.3819474,-2.1196246,9.441312,0.0,0.0012217305,-0.002443461,82
1776161402178,2093524,-1.3939227,-2.174711,9.391015,-0.002443461,0.002443461,0.0012217305,82
1776161402221,2093917,-1.4130832,-2.2058468,9.38383,0.0036651916,0.0036651916,0.002443461,82
1776161402259,2094326,-1.3963177,-2.1531556,9.412571,-0.0061086523,0.0036651916,0.0012217305,82
1776161402298,2094794,-1.408293,-2.1603408,9.448497,0.0012217305,-0.002443461,-0.002443461,82
1776161402339,2095267,-1.405898,-2.1459703,9.331139,0.0,0.002443461,0.0036651916,82
1776161402379,2095847,-1.365182,-2.1531556,9.400596,0.004886922,-0.0012217305,0.0,82
1776161402418,2096449,-1.4011079,-2.1531556,9.34551,0.0,0.0012217305,0.004886922,82
1776161402457,2096898,-1.449009,-2.1890814,9.393411,0.0036651916,0.004886922,0.002443461,82
1776161402496,2096252,-1.4298486,-2.1651309,9.391015,0.0036651916,0.002443461,0.0036651916,82
1776161402537,2095238,-1.3579968,-2.1411803,9.395805,-0.0036651916,0.0012217305,-0.0012217305,82
1776161402580,2094481,-1.4250585,-2.0980692,9.36946,0.004886922,0.0036651916,0.0036651916,82
1776161402617,2094039,-1.449009,-2.1316,9.412571,0.0,0.0012217305,0.0,82
1776161402656,2093744,-1.3987129,-2.1220198,9.393411,0.002443461,-0.0012217305,-0.002443461,82
1776161402697,2093644,-1.3436265,-2.1579456,9.393411,-0.002443461,0.0,-0.0012217305,82
1776161402737,2093607,-1.4825398,-2.1771061,9.429337,0.0036651916,0.0012217305,-0.0012217305,82
1776161402784,2093575,-1.4442189,-2.1387851,9.38383,-0.004886922,0.0,-0.0036651916,82
1776161402816,2093509,-1.4154782,-2.1148345,9.434126,0.0012217305,0.0012217305,-0.002443461,82
1776161402856,2093684,-1.3579968,-2.1866863,9.393411,-0.002443461,-0.0012217305,-0.0012217305,82
1776161402898,2094002,-1.3963177,-2.1052544,9.367064,-0.002443461,-0.002443461,0.0,82
1776161402936,2094219,-1.3699721,-2.2345874,9.3982,-0.002443461,-0.0012217305,0.0,82
1776161402978,2094791,-1.4322436,-2.174711,9.381435,0.002443461,0.0012217305,0.0,82
1776161403018,2095250,-1.3939227,-2.1220198,9.410175,-0.0061086523,0.002443461,0.0012217305,82
1776161403057,2095765,-1.3436265,-2.1579456,9.407781,0.0036651916,-0.0012217305,-0.0036651916,82
1776161403096,2096355,-1.3436265,-2.124415,9.36467,0.0,0.0,-0.0012217305,82
1776161403137,2096926,-1.365182,-2.1459703,9.414966,0.0,0.0,0.0,82
1776161403178,2097547,-1.4274535,-2.1531556,9.343114,-0.002443461,0.0012217305,0.0036651916,82
1776161403218,2098195,-1.408293,-2.1890814,9.424546,0.0036651916,0.0036651916,0.002443461,82
1776161403260,2097822,-1.4394288,-2.1196246,9.422151,0.0036651916,0.0,0.002443461,82
1776161403298,2097060,-1.4226633,-2.1866863,9.38862,-0.012217305,-0.0012217305,0.0,82
1776161403337,2096335,-1.3795524,-2.1148345,9.434126,0.008552114,0.004886922,0.0012217305,82
1776161403376,2095955,-1.3963177,-2.1818962,9.381435,-0.002443461,0.004886922,0.0036651916,82
1776161403416,2095699,-1.3675771,-2.1028593,9.326349,-0.002443461,0.0,-0.002443461,82
1776161403458,2095738,-1.3675771,-2.1651309,9.381435,-0.0061086523,-0.002443461,-0.002443461,82
1776161403497,2095823,-1.3987129,-2.1220198,9.38383,-0.002443461,0.0,-0.0012217305,82
1776161403536,2095795,-1.3987129,-2.1842914,9.367064,-0.004886922,0.0,0.0,82
1776161403577,2095762,-1.3795524,-2.124415,9.357485,-0.0012217305,0.0012217305,-0.0012217305,82
1776161403617,2096072,-1.3436265,-2.172316,9.412571,-0.002443461,-0.0012217305,0.0,82
1776161403658,2096310,-1.4202683,-2.1411803,9.395805,-0.0036651916,-0.002443461,-0.0012217305,82
1776161403697,2096726,-1.3939227,-2.1483655,9.393411,-0.0012217305,-0.0012217305,0.0012217305,82
1776161403738,2097187,-1.4681695,-2.1196246,9.371855,-0.0012217305,0.0012217305,0.0012217305,82
1776161403778,2097651,-1.4394288,-2.1986616,9.376645,-0.0036651916,0.002443461,0.0,82
1776161403816,2098209,-1.4322436,-2.1675258,9.434126,-0.0012217305,-0.0012217305,-0.002443461,82
1776161403858,2098780,-1.3699721,-2.1507604,9.400596,0.002443461,0.0,0.0,82
1776161403898,2099297,-1.410688,-2.2058468,9.374249,-0.0036651916,-0.0012217305,-0.0012217305,82
1776161403937,2099978,-1.4011079,-2.1220198,9.391015,0.0,-0.0012217305,-0.0012217305,82
1776161403977,2100587,-1.4346386,-2.2465627,9.414966,0.0,0.002443461,0.0036651916,82
1776161404019,2100478,-1.3915277,-2.1483655,9.434126,0.002443461,0.002443461,0.0012217305,82
1776161404056,2099634,-1.3795524,-2.1818962,9.3598795,-0.012217305,-0.0012217305,-0.0012217305,82
1776161404099,2099018,-1.4394288,-2.1268098,9.343114,0.009773844,0.0036651916,0.002443461,82
1776161404138,2098676,-1.3867376,-2.2010567,9.371855,-0.004886922,0.0012217305,0.0,82
1776161404178,2098482,-1.3771573,-2.174711,9.374249,0.0,-0.002443461,-0.0012217305,82
1776161404217,2098497,-1.4514041,-2.217822,9.3526945,-0.004886922,-0.0012217305,-0.0012217305,82
1776161404256,2098574,-1.4178733,-2.1675258,9.374249,0.002443461,-0.002443461,-0.0036651916,82
1776161404296,2098553,-1.3915277,-2.169921,9.3982,-0.0036651916,-0.0036651916,-0.0012217305,82
1776161404336,2098426,-1.3795524,-2.133995,9.448497,0.002443461,-0.0012217305,-0.002443461,82
1776161404377,2098569,-1.4298486,-2.215427,9.414966,-0.002443461,-0.0012217305,-0.002443461,82
1776161404418,2098850,-1.362787,-2.1124396,9.38862,0.0012217305,0.0,-0.002443461,82
1776161404458,2099162,-1.3915277,-2.1675258,9.441312,-0.0012217305,0.0,0.0,82
1776161404498,2099559,-1.3939227,-2.1651309,9.422151,0.0012217305,0.0,0.0,82
1776161404537,2099884,-1.3843424,-2.0813038,9.38862,0.0036651916,0.002443461,-0.0012217305,82
1776161404578,2100427,-1.4849348,-2.124415,9.400596,0.0012217305,-0.0036651916,-0.0036651916,82
1776161404616,2100814,-1.405898,-2.1196246,9.391015,0.0036651916,0.0012217305,0.0,82
1776161404660,2101275,-1.408293,-2.1004643,9.38862,0.0012217305,-0.002443461,-0.0012217305,82
1776161404697,2101899,-1.3843424,-2.2106369,9.38862,0.0036651916,0.0,0.002443461,82
1776161404736,2102032,-1.4130832,-2.1052544,9.4508915,0.002443461,0.002443461,0.0012217305,82
1776161404777,2101251,-1.3795524,-2.1914763,9.426941,0.0012217305,-0.0012217305,0.0012217305,82
1776161404816,2100515,-1.4537991,-2.1316,9.407781,0.002443461,0.0012217305,-0.0012217305,82
1776161404857,2100062,-1.3579968,-2.1627357,9.395805,0.002443461,0.0036651916,0.002443461,82
1776161404896,2099778,-1.4322436,-2.2082417,9.371855,0.0,0.0,-0.002443461,81
1776161404936,2099656,-1.408293,-2.1651309,9.376645,-0.002443461,-0.002443461,-0.002443461,81
1776161404977,2099722,-1.410688,-2.1363902,9.395805,-0.0012217305,0.0,-0.0036651916,81
1776161405018,2099641,-1.4298486,-2.1316,9.429337,-0.002443461,0.0,-0.002443461,81
1776161405056,2099593,-1.3292562,-2.0956743,9.431731,0.0012217305,-0.0012217305,-0.002443461,81
1776161405097,2099641,-1.4130832,-2.1459703,9.3982,0.0,0.0,-0.0012217305,81
1776161405137,2099774,-1.4561942,-2.1483655,9.38862,0.0,-0.0012217305,-0.0012217305,81
1776161405176,2100383,-1.4011079,-2.0813038,9.441312,-0.002443461,-0.0012217305,-0.0012217305,81
1776161405216,2100842,-1.405898,-2.1627357,9.395805,0.0036651916,0.0012217305,0.002443461,81
1776161405257,2101232,-1.4585892,-2.1866863,9.36946,-0.007330383,0.0,0.0012217305,81
1776161405298,2101662,-1.3795524,-2.174711,9.472447,0.0012217305,-0.004886922,-0.004886922,81
1776161405336,2102151,-1.4394288,-2.1076493,9.386225,0.0012217305,0.0012217305,-0.0012217305,81
1776161405376,2102669,-1.362787,-2.1986616,9.395805,0.0036651916,-0.0012217305,-0.002443461,81
1776161405416,2103093,-1.4442189,-2.1387851,9.36946,0.0,-0.0012217305,0.0012217305,81
1776161405456,2102718,-1.4011079,-2.1172297,9.386225,0.0012217305,0.0012217305,0.0,81
1776161405496,2101705,-1.4609842,-2.1938715,9.400596,0.0036651916,0.0,0.0012217305,81
1776161405538,2100944,-1.3843424,-2.0645385,9.3526945,-0.008552114,0.0,-0.002443461,81
1776161405578,2100402,-1.4322436,-2.1124396,9.37904,0.008552114,0.002443461,-0.0012217305,81
1776161405617,2099880,-1.4322436,-2.1531556,9.374249,-0.0012217305,0.0012217305,0.0,81
1776161405657,2099619,-1.4681695,-2.2034516,9.391015,0.0012217305,-0.0012217305,-0.002443461,81
